File: segmentation_results/3D_Unet/Task004_SegVal_Hippocampus/subsampled-stats-DSC-Hippocampus-Jan1118/subsampled-stats-DSC-Hippocampus-Jan11.csv
,sample-set,u-kj,sigma-kj,SEM-kj,w-kj,A-kj,B-kj,u-kj-star,SEM-kj-star,w-kj-star,A-kj-star,B-kj-star
0,10,90.292,2.9018,0.918,3.59856,-1.7986,1.7986,90.294,0.925,3.58,-1.91,1.67
1,10,89.228,2.38217,0.753,2.95176,-1.4765,1.4765,89.225,0.753,2.95,-1.48,1.46
2,10,89.451,2.97661,0.941,3.68872,-1.8449,1.8449,89.451,0.945,3.67,-1.87,1.8
3,10,87.94,3.2415,1.025,4.018,-2.0091,2.0091,87.926,1.032,4.03,-2.0,2.03
4,10,89.678,2.47912,0.784,3.07328,-1.5366,1.5366,89.679,0.775,3.03,-1.48,1.54
5,10,87.861,2.84618,0.9,3.528,-1.7641,1.7641,87.868,0.9,3.55,-1.78,1.76
6,10,89.574,2.64661,0.837,3.28104,-1.6404,1.6404,89.57,0.841,3.29,-1.62,1.67
7,10,89.234,2.0679,0.654,2.56368,-1.2817,1.2817,89.236,0.656,2.55,-1.31,1.25
8,10,89.615,2.7421,0.867,3.39864,-1.6996,1.6996,89.617,0.866,3.38,-1.78,1.61
9,10,91.102,1.92579,0.609,2.38728,-1.1936,1.1936,91.104,0.609,2.37,-1.27,1.09
10,10,90.231,2.53709,0.802,3.14384,-1.5725,1.5725,90.237,0.798,3.11,-1.59,1.51
11,10,90.092,3.00836,0.951,3.72792,-1.8646,1.8646,90.104,0.945,3.67,-1.86,1.8
12,10,88.134,3.75322,1.187,4.65304,-2.3263,2.3263,88.128,1.193,4.65,-2.25,2.4
13,10,89.865,2.9057,0.919,3.60248,-1.801,1.801,89.856,0.925,3.59,-1.9,1.7
14,10,88.571,2.61155,0.826,3.23792,-1.6187,1.6187,88.555,0.83,3.23,-1.51,1.72
15,10,89.638,2.64987,0.838,3.28496,-1.6424,1.6424,89.644,0.841,3.31,-1.72,1.58
16,10,89.656,2.37659,0.752,2.94784,-1.473,1.473,89.656,0.753,2.92,-1.48,1.44
17,10,90.431,1.4662,0.464,1.81888,-0.9088,0.9088,90.431,0.464,1.81,-0.88,0.93
18,10,88.841,3.44974,1.091,4.27672,-2.1382,2.1382,88.838,1.087,4.17,-2.36,1.8
19,10,90.865,2.63879,0.834,3.26928,-1.6355,1.6355,90.879,0.83,3.25,-1.67,1.57
20,10,88.784,3.62644,1.147,4.49624,-2.2477,2.2477,88.768,1.136,4.43,-2.49,1.95
21,10,88.982,2.01868,0.638,2.50096,-1.2512,1.2512,88.981,0.642,2.49,-1.29,1.2
22,10,90.32,1.99372,0.63,2.4696,-1.2357,1.2357,90.315,0.629,2.44,-1.16,1.28
23,10,88.722,3.6984,1.17,4.5864,-2.2923,2.2923,88.722,1.164,4.5,-2.46,2.04
24,10,89.392,2.43196,0.769,3.01448,-1.5073,1.5073,89.39,0.765,2.98,-1.49,1.49
25,10,89.845,1.57864,0.499,1.95608,-0.9785,0.9785,89.843,0.504,1.98,-0.99,0.99
26,10,88.589,4.00517,1.267,4.96664,-2.4824,2.4824,88.585,1.261,4.91,-2.65,2.26
27,10,89.232,2.6209,0.829,3.24968,-1.6244,1.6244,89.224,0.832,3.24,-1.54,1.69
28,10,90.563,1.92018,0.607,2.37944,-1.1901,1.1901,90.565,0.615,2.39,-1.17,1.23
29,10,89.937,2.96371,0.937,3.67304,-1.8369,1.8369,89.923,0.941,3.66,-1.87,1.79
30,10,89.52,2.40591,0.761,2.98312,-1.4912,1.4912,89.523,0.758,2.94,-1.56,1.39
31,10,89.507,3.07714,0.973,3.81416,-1.9072,1.9072,89.517,0.976,3.81,-1.96,1.84
32,10,89.633,3.05609,0.966,3.78672,-1.8942,1.8942,89.641,0.967,3.8,-1.92,1.87
33,10,89.815,2.02606,0.641,2.51272,-1.2558,1.2558,89.816,0.644,2.53,-1.3,1.23
34,10,88.48,3.62729,1.147,4.49624,-2.2482,2.2482,88.474,1.146,4.46,-2.47,2.0
35,10,89.948,2.43605,0.77,3.0184,-1.5099,1.5099,89.944,0.765,2.99,-1.49,1.5
36,10,90.502,1.89646,0.6,2.352,-1.1754,1.1754,90.498,0.601,2.35,-1.14,1.21
37,10,89.263,3.53451,1.118,4.38256,-2.1907,2.1907,89.277,1.114,4.32,-2.46,1.86
38,10,88.726,1.63518,0.517,2.02664,-1.0135,1.0135,88.722,0.521,2.02,-1.01,1.0
39,10,90.562,2.26263,0.716,2.80672,-1.4024,1.4024,90.573,0.716,2.77,-1.48,1.29
40,10,89.115,2.34136,0.74,2.9008,-1.4512,1.4512,89.125,0.736,2.86,-1.47,1.38
41,10,89.593,2.70472,0.855,3.3516,-1.6764,1.6764,89.601,0.859,3.36,-1.74,1.62
42,10,89.674,2.36665,0.748,2.93216,-1.4669,1.4669,89.669,0.746,2.94,-1.42,1.52
43,10,89.526,3.78546,1.197,4.69224,-2.3463,2.3463,89.536,1.206,4.67,-2.63,2.04
44,10,89.532,3.722,1.177,4.61384,-2.3069,2.3069,89.528,1.182,4.59,-2.34,2.25
45,10,89.583,2.03993,0.645,2.5284,-1.2644,1.2644,89.588,0.643,2.5,-1.3,1.2
46,10,89.206,1.97433,0.624,2.44608,-1.2237,1.2237,89.205,0.626,2.43,-1.32,1.11
47,10,90.799,1.35216,0.428,1.67776,-0.8381,0.8381,90.798,0.428,1.67,-0.91,0.76
48,10,89.764,2.7058,0.856,3.35552,-1.6771,1.6771,89.774,0.854,3.34,-1.74,1.59
49,10,90.165,2.20235,0.696,2.72832,-1.365,1.365,90.157,0.697,2.74,-1.32,1.42
50,10,90.137,2.15727,0.682,2.67344,-1.3371,1.3371,90.13,0.683,2.65,-1.35,1.3
51,10,89.997,3.49765,1.106,4.33552,-2.1679,2.1679,89.992,1.11,4.3,-2.16,2.14
52,10,89.377,1.87552,0.593,2.32456,-1.1625,1.1625,89.377,0.591,2.31,-1.16,1.15
53,10,89.991,2.25681,0.714,2.79888,-1.3988,1.3988,89.986,0.713,2.76,-1.4,1.37
54,10,90.553,2.61244,0.826,3.23792,-1.6192,1.6192,90.557,0.825,3.22,-1.66,1.56
55,10,89.2,2.54881,0.806,3.15952,-1.5798,1.5798,89.209,0.801,3.11,-1.59,1.52
56,10,90.315,1.80947,0.572,2.24224,-1.1215,1.1215,90.317,0.573,2.25,-1.12,1.12
57,10,90.374,2.59825,0.822,3.22224,-1.6104,1.6104,90.372,0.823,3.19,-1.7,1.49
58,10,90.865,2.3876,0.755,2.9596,-1.4798,1.4798,90.862,0.757,2.94,-1.58,1.36
59,10,89.674,2.41766,0.765,2.9988,-1.4985,1.4985,89.68,0.766,2.99,-1.57,1.42
60,10,89.241,2.76376,0.874,3.42608,-1.713,1.713,89.236,0.875,3.4,-1.7,1.7
61,10,91.39,2.64496,0.836,3.27712,-1.6394,1.6394,91.382,0.838,3.26,-1.73,1.53
62,10,90.579,1.96383,0.621,2.43432,-1.2172,1.2172,90.578,0.619,2.4,-1.28,1.12
63,10,90.735,2.18291,0.69,2.7048,-1.353,1.353,90.743,0.682,2.68,-1.45,1.23
64,10,89.944,1.81222,0.573,2.24616,-1.1232,1.1232,89.95,0.576,2.28,-1.12,1.15
65,10,90.619,2.10296,0.665,2.6068,-1.3034,1.3034,90.619,0.664,2.59,-1.38,1.21
66,10,90.355,2.60083,0.822,3.22224,-1.612,1.612,90.376,0.819,3.2,-1.62,1.59
67,10,90.572,2.034,0.643,2.52056,-1.2607,1.2607,90.568,0.643,2.5,-1.33,1.18
68,10,90.006,1.68587,0.533,2.08936,-1.0449,1.0449,90.01,0.531,2.06,-1.1,0.96
69,10,89.378,2.88809,0.913,3.57896,-1.7901,1.7901,89.373,0.915,3.6,-1.8,1.8
70,10,89.905,3.03624,0.96,3.7632,-1.8819,1.8819,89.893,0.966,3.75,-2.03,1.72
71,10,90.931,1.90173,0.601,2.35592,-1.1787,1.1787,90.923,0.598,2.33,-1.17,1.17
72,10,88.988,3.40948,1.078,4.22576,-2.1132,2.1132,89.007,1.071,4.15,-2.14,2.02
73,10,89.613,3.16085,1.0,3.92,-1.9591,1.9591,89.623,0.989,3.85,-2.03,1.82
74,10,88.978,2.53329,0.801,3.13992,-1.5702,1.5702,88.984,0.798,3.14,-1.56,1.57
75,10,90.933,1.65343,0.523,2.05016,-1.0248,1.0248,90.929,0.529,2.06,-1.13,0.93
76,10,91.075,2.06383,0.653,2.55976,-1.2792,1.2792,91.079,0.651,2.51,-1.4,1.11
77,10,90.101,2.4018,0.76,2.9792,-1.4886,1.4886,90.115,0.755,2.94,-1.57,1.36
78,10,90.481,2.42346,0.766,3.00272,-1.5021,1.5021,90.485,0.767,3.01,-1.58,1.42
79,10,89.846,2.99891,0.948,3.71616,-1.8587,1.8587,89.853,0.951,3.72,-1.95,1.78
80,10,88.793,3.72291,1.177,4.61384,-2.3075,2.3075,88.806,1.166,4.5,-2.45,2.05
81,10,90.284,2.25918,0.714,2.79888,-1.4003,1.4003,90.288,0.716,2.77,-1.5,1.27
82,10,89.01,2.3038,0.729,2.85768,-1.4279,1.4279,89.017,0.736,2.88,-1.46,1.42
83,10,88.993,3.53523,1.118,4.38256,-2.1912,2.1912,88.985,1.111,4.28,-2.42,1.87
84,10,91.428,1.70335,0.539,2.11288,-1.0557,1.0557,91.435,0.537,2.09,-1.04,1.05
85,10,89.048,2.92658,0.925,3.626,-1.8139,1.8139,89.055,0.922,3.57,-1.84,1.73
86,10,89.899,2.67039,0.844,3.30848,-1.6551,1.6551,89.884,0.849,3.26,-1.73,1.53
87,10,89.725,2.33324,0.738,2.89296,-1.4462,1.4462,89.732,0.733,2.83,-1.5,1.32
88,10,90.257,2.64573,0.837,3.28104,-1.6398,1.6398,90.256,0.843,3.25,-1.75,1.51
89,10,89.776,2.15249,0.681,2.66952,-1.3341,1.3341,89.771,0.688,2.68,-1.37,1.31
90,10,90.678,1.66601,0.527,2.06584,-1.0326,1.0326,90.677,0.528,2.07,-1.05,1.02
91,10,88.324,2.93037,0.927,3.63384,-1.8163,1.8163,88.322,0.919,3.55,-1.73,1.82
92,10,89.305,2.38118,0.753,2.95176,-1.4759,1.4759,89.304,0.757,2.95,-1.56,1.39
93,10,90.315,3.11354,0.985,3.8612,-1.9298,1.9298,90.309,0.988,3.83,-1.96,1.87
94,10,89.523,3.3476,1.059,4.15128,-2.0749,2.0749,89.513,1.067,4.18,-2.21,1.97
95,10,90.421,3.4355,1.086,4.25712,-2.1293,2.1293,90.417,1.076,4.24,-2.26,1.98
96,10,88.965,3.06919,0.971,3.80632,-1.9023,1.9023,88.965,0.967,3.76,-1.89,1.88
97,10,88.758,3.16895,1.002,3.92784,-1.9641,1.9641,88.763,1.006,3.93,-2.03,1.91
98,10,89.36,2.50299,0.792,3.10464,-1.5514,1.5514,89.355,0.776,3.01,-1.68,1.32
99,10,90.547,1.87331,0.592,2.32064,-1.1611,1.1611,90.549,0.588,2.29,-1.14,1.15
100,20,89.646,2.46412,0.551,2.15992,-1.0799,1.0799,89.646,0.554,2.16,-1.11,1.05
101,20,89.93,2.63978,0.59,2.3128,-1.1569,1.1569,89.931,0.594,2.31,-1.21,1.1
102,20,89.4645,2.40116,0.537,2.10504,-1.0524,1.0524,89.47,0.537,2.1,-1.06,1.04
103,20,89.5585,2.9692,0.664,2.60288,-1.3013,1.3013,89.559,0.662,2.6,-1.33,1.27
104,20,90.335,2.7712,0.62,2.4304,-1.2145,1.2145,90.333,0.621,2.42,-1.22,1.2
105,20,89.7055,3.43532,0.768,3.01056,-1.5056,1.5056,89.717,0.767,2.99,-1.62,1.38
106,20,89.072,3.12499,0.699,2.74008,-1.3696,1.3696,89.068,0.699,2.75,-1.44,1.3
107,20,89.6805,3.20455,0.717,2.81064,-1.4045,1.4045,89.686,0.72,2.79,-1.43,1.36
108,20,89.494,2.31869,0.518,2.03056,-1.0162,1.0162,89.494,0.523,2.05,-1.03,1.02
109,20,89.62,2.88854,0.646,2.53232,-1.266,1.266,89.617,0.646,2.54,-1.27,1.28
110,20,90.039,2.08944,0.467,1.83064,-0.9157,0.9157,90.038,0.468,1.84,-0.97,0.88
111,20,90.4735,3.27377,0.732,2.86944,-1.4348,1.4348,90.464,0.736,2.86,-1.58,1.28
112,20,89.6595,1.98522,0.444,1.74048,-0.8701,0.8701,89.665,0.446,1.74,-0.84,0.89
113,20,89.6225,2.94433,0.658,2.57936,-1.2904,1.2904,89.619,0.662,2.58,-1.35,1.23
114,20,90.0355,2.34951,0.525,2.058,-1.0297,1.0297,90.034,0.525,2.04,-1.05,1.0
115,20,89.6355,2.41162,0.539,2.11288,-1.0569,1.0569,89.633,0.545,2.14,-1.11,1.04
116,20,89.129,2.87734,0.643,2.52056,-1.261,1.261,89.13,0.645,2.53,-1.3,1.23
117,20,90.2385,2.64244,0.591,2.31672,-1.1581,1.1581,90.242,0.592,2.32,-1.18,1.14
118,20,88.945,3.04996,0.682,2.67344,-1.3367,1.3367,88.947,0.687,2.69,-1.37,1.32
119,20,90.5145,2.40164,0.537,2.10504,-1.0526,1.0526,90.511,0.537,2.1,-1.13,0.97
120,20,89.5935,1.9988,0.447,1.75224,-0.876,0.876,89.595,0.45,1.76,-0.9,0.86
121,20,89.696,3.39279,0.759,2.97528,-1.487,1.487,89.684,0.77,3.0,-1.64,1.36
122,20,90.0545,3.06384,0.685,2.6852,-1.3428,1.3428,90.054,0.679,2.64,-1.36,1.27
123,20,89.2225,3.10422,0.694,2.72048,-1.3605,1.3605,89.214,0.701,2.74,-1.47,1.27
124,20,89.697,2.29608,0.513,2.01096,-1.0063,1.0063,89.695,0.51,1.99,-1.0,0.99
125,20,89.817,2.41672,0.54,2.1168,-1.0592,1.0592,89.817,0.541,2.1,-1.13,0.96
126,20,90.7305,2.47683,0.554,2.17168,-1.0855,1.0855,90.742,0.555,2.19,-1.13,1.06
127,20,89.7945,2.43068,0.544,2.13248,-1.0653,1.0653,89.795,0.544,2.13,-1.11,1.03
128,20,89.111,2.81683,0.63,2.4696,-1.2345,1.2345,89.116,0.629,2.44,-1.22,1.22
129,20,89.6615,2.08623,0.466,1.82672,-0.9143,0.9143,89.66,0.466,1.82,-0.95,0.86
130,20,89.634,2.15094,0.481,1.88552,-0.9427,0.9427,89.639,0.482,1.89,-0.96,0.94
131,20,89.6055,2.75307,0.616,2.41472,-1.2066,1.2066,89.596,0.613,2.4,-1.23,1.16
132,20,89.785,2.70145,0.604,2.36768,-1.184,1.184,89.783,0.609,2.39,-1.26,1.13
133,20,89.7685,2.78602,0.623,2.44216,-1.221,1.221,89.771,0.62,2.43,-1.24,1.18
134,20,88.931,3.18418,0.712,2.79104,-1.3955,1.3955,88.927,0.713,2.79,-1.47,1.32
135,20,90.417,3.42951,0.767,3.00664,-1.5031,1.5031,90.415,0.762,2.97,-1.59,1.38
136,20,89.8215,2.50454,0.56,2.1952,-1.0977,1.0977,89.818,0.56,2.18,-1.1,1.08
137,20,89.352,2.86249,0.64,2.5088,-1.2545,1.2545,89.351,0.64,2.5,-1.26,1.24
138,20,88.619,2.75975,0.617,2.41864,-1.2095,1.2095,88.609,0.612,2.38,-1.2,1.19
139,20,89.8105,2.40391,0.538,2.10896,-1.0536,1.0536,89.817,0.534,2.09,-1.07,1.02
140,20,88.7785,2.9193,0.653,2.55976,-1.2794,1.2794,88.775,0.655,2.59,-1.32,1.27
141,20,90.4175,2.8132,0.629,2.46568,-1.2329,1.2329,90.425,0.626,2.43,-1.26,1.17
142,20,88.5135,3.24768,0.726,2.84592,-1.4234,1.4234,88.506,0.731,2.91,-1.44,1.47
143,20,90.1425,1.7337,0.388,1.52096,-0.7598,0.7598,90.143,0.388,1.53,-0.75,0.77
144,20,90.165,2.34384,0.524,2.05408,-1.0272,1.0272,90.16,0.523,2.04,-1.04,1.0
145,20,90.033,2.80548,0.627,2.45784,-1.2296,1.2296,90.03,0.628,2.45,-1.29,1.16
146,20,89.1175,2.56821,0.574,2.25008,-1.1256,1.1256,89.123,0.578,2.25,-1.16,1.09
147,20,90.345,2.19595,0.491,1.92472,-0.9624,0.9624,90.345,0.492,1.91,-0.98,0.93
148,20,89.5045,2.42565,0.542,2.12464,-1.0631,1.0631,89.509,0.543,2.13,-1.09,1.04
149,20,89.871,2.03131,0.454,1.77968,-0.8903,0.8903,89.875,0.453,1.78,-0.9,0.87
150,20,89.1885,2.28391,0.511,2.00312,-1.001,1.001,89.186,0.512,1.99,-1.02,0.98
151,20,89.5945,1.72921,0.387,1.51704,-0.7579,0.7579,89.593,0.384,1.5,-0.78,0.72
152,20,88.892,2.37034,0.53,2.0776,-1.0388,1.0388,88.895,0.527,2.04,-1.02,1.03
153,20,90.337,2.54729,0.57,2.2344,-1.1164,1.1164,90.346,0.567,2.21,-1.14,1.07
154,20,90.064,2.09148,0.468,1.83456,-0.9166,0.9166,90.062,0.472,1.85,-0.96,0.89
155,20,90.3755,3.19709,0.715,2.8028,-1.4012,1.4012,90.372,0.71,2.76,-1.44,1.33
156,20,91.344,1.83751,0.411,1.61112,-0.8053,0.8053,91.343,0.411,1.6,-0.79,0.81
157,20,89.8635,2.97631,0.666,2.61072,-1.3044,1.3044,89.856,0.661,2.59,-1.42,1.17
158,20,89.284,3.32371,0.743,2.91256,-1.4567,1.4567,89.295,0.748,2.97,-1.56,1.4
159,20,90.1885,2.30502,0.515,2.0188,-1.0102,1.0102,90.18,0.52,2.02,-1.04,0.98
160,20,90.6085,2.41166,0.539,2.11288,-1.057,1.057,90.607,0.543,2.13,-1.09,1.04
161,20,89.2495,3.03342,0.678,2.65776,-1.3295,1.3295,89.253,0.675,2.62,-1.33,1.29
162,20,89.8735,3.32595,0.744,2.91648,-1.4577,1.4577,89.879,0.741,2.9,-1.55,1.34
163,20,88.01,3.21583,0.719,2.81848,-1.4094,1.4094,88.006,0.723,2.82,-1.45,1.36
164,20,89.622,2.69671,0.603,2.36376,-1.1819,1.1819,89.63,0.604,2.37,-1.19,1.18
165,20,90.4805,2.19861,0.492,1.92864,-0.9636,0.9636,90.482,0.492,1.94,-0.99,0.95
166,20,89.6115,3.08916,0.691,2.70872,-1.3539,1.3539,89.613,0.698,2.7,-1.45,1.25
167,20,90.267,2.49577,0.558,2.18736,-1.0938,1.0938,90.268,0.559,2.21,-1.14,1.07
168,20,89.827,2.17055,0.485,1.9012,-0.9513,0.9513,89.833,0.479,1.84,-0.93,0.9
169,20,89.1985,3.20732,0.717,2.81064,-1.4057,1.4057,89.208,0.72,2.8,-1.49,1.32
170,20,90.157,1.82014,0.407,1.59544,-0.7977,0.7977,90.158,0.404,1.58,-0.82,0.75
171,20,89.646,2.04644,0.458,1.79536,-0.8969,0.8969,89.647,0.452,1.76,-0.89,0.87
172,20,89.852,2.5648,0.574,2.25008,-1.1241,1.1241,89.85,0.569,2.23,-1.14,1.09
173,20,89.737,2.37046,0.53,2.0776,-1.0389,1.0389,89.741,0.527,2.04,-1.02,1.02
174,20,89.5605,2.93697,0.657,2.57544,-1.2872,1.2872,89.565,0.659,2.57,-1.32,1.25
175,20,90.093,2.12545,0.475,1.862,-0.9315,0.9315,90.095,0.474,1.85,-0.97,0.87
176,20,89.963,3.27347,0.732,2.86944,-1.4347,1.4347,89.962,0.741,2.89,-1.58,1.31
177,20,89.917,2.8452,0.636,2.49312,-1.247,1.247,89.92,0.635,2.48,-1.27,1.21
178,20,89.3045,3.68477,0.824,3.23008,-1.6149,1.6149,89.318,0.823,3.21,-1.68,1.53
179,20,89.334,2.83747,0.634,2.48528,-1.2436,1.2436,89.326,0.629,2.46,-1.25,1.22
180,20,89.772,3.40285,0.761,2.98312,-1.4914,1.4914,89.773,0.76,2.95,-1.51,1.43
181,20,90.7245,1.97584,0.442,1.73264,-0.8659,0.8659,90.723,0.442,1.71,-0.88,0.84
182,20,89.747,2.51262,0.562,2.20304,-1.1012,1.1012,89.75,0.561,2.19,-1.1,1.1
183,20,89.9605,2.17654,0.487,1.90904,-0.9539,0.9539,89.96,0.488,1.9,-0.93,0.97
184,20,89.759,2.47227,0.553,2.16776,-1.0835,1.0835,89.758,0.553,2.15,-1.12,1.04
185,20,88.613,3.32962,0.745,2.9204,-1.4593,1.4593,88.617,0.745,2.9,-1.46,1.45
186,20,89.1115,3.02282,0.676,2.64992,-1.3248,1.3248,89.113,0.68,2.66,-1.33,1.33
187,20,90.173,2.35456,0.526,2.06192,-1.0319,1.0319,90.182,0.519,2.03,-1.11,0.92
188,20,88.4395,2.88755,0.646,2.53232,-1.2655,1.2655,88.447,0.646,2.54,-1.36,1.19
189,20,89.7235,2.70551,0.605,2.3716,-1.1857,1.1857,89.726,0.603,2.35,-1.23,1.12
190,20,90.356,2.31556,0.518,2.03056,-1.0148,1.0148,90.357,0.518,2.02,-1.03,0.99
191,20,89.924,3.01397,0.674,2.64208,-1.3209,1.3209,89.925,0.674,2.65,-1.36,1.28
192,20,89.597,2.9166,0.652,2.55584,-1.2783,1.2783,89.591,0.65,2.58,-1.31,1.27
193,20,89.8825,2.74223,0.613,2.40296,-1.2018,1.2018,89.888,0.614,2.4,-1.23,1.17
194,20,90.51,2.33422,0.522,2.04624,-1.023,1.023,90.51,0.522,2.04,-1.05,0.99
195,20,89.305,2.24803,0.503,1.97176,-0.9852,0.9852,89.305,0.51,1.99,-0.96,1.04
196,20,89.282,3.14651,0.704,2.75968,-1.379,1.379,89.291,0.701,2.76,-1.44,1.32
197,20,89.17,3.36264,0.752,2.94784,-1.4737,1.4737,89.167,0.751,2.93,-1.49,1.45
198,20,89.441,2.37637,0.531,2.08152,-1.0415,1.0415,89.438,0.532,2.09,-1.06,1.03
199,20,90.56,3.37138,0.754,2.95568,-1.4776,1.4776,90.564,0.752,2.94,-1.59,1.35
200,30,89.8317,3.0798,0.562,2.20304,-1.1021,1.1021,89.834,0.559,2.19,-1.14,1.06
201,30,89.4397,3.21284,0.587,2.30104,-1.1497,1.1497,89.432,0.593,2.32,-1.2,1.12
202,30,88.9677,3.34718,0.611,2.39512,-1.1978,1.1978,88.975,0.61,2.38,-1.24,1.15
203,30,90.0393,2.99776,0.547,2.14424,-1.0727,1.0727,90.044,0.545,2.16,-1.11,1.05
204,30,89.0823,3.24085,0.592,2.32064,-1.1597,1.1597,89.079,0.589,2.32,-1.21,1.11
205,30,89.9603,2.65477,0.485,1.9012,-0.95,0.95,89.965,0.486,1.9,-0.98,0.93
206,30,89.685,2.77482,0.507,1.98744,-0.993,0.993,89.684,0.509,2.0,-1.02,0.98
207,30,89.729,2.87266,0.524,2.05408,-1.028,1.028,89.724,0.529,2.11,-1.07,1.04
208,30,89.3973,3.08614,0.563,2.20696,-1.1044,1.1044,89.4,0.561,2.18,-1.15,1.03
209,30,90.2497,2.53336,0.463,1.81496,-0.9066,0.9066,90.249,0.468,1.83,-0.93,0.9
210,30,90.0017,2.26501,0.414,1.62288,-0.8105,0.8105,90.002,0.418,1.64,-0.84,0.8
211,30,90.1033,2.67046,0.488,1.91296,-0.9556,0.9556,90.099,0.49,1.92,-1.0,0.92
212,30,90.2333,2.35447,0.43,1.6856,-0.8425,0.8425,90.243,0.432,1.69,-0.85,0.84
213,30,90.1247,2.63169,0.48,1.8816,-0.9417,0.9417,90.126,0.481,1.88,-0.96,0.93
214,30,89.6023,3.3816,0.617,2.41864,-1.2101,1.2101,89.599,0.617,2.4,-1.28,1.12
215,30,89.8927,2.7439,0.501,1.96392,-0.9819,0.9819,89.899,0.507,2.0,-1.03,0.97
216,30,89.41,2.38515,0.435,1.7052,-0.8535,0.8535,89.41,0.433,1.69,-0.85,0.84
217,30,90.228,2.00495,0.366,1.43472,-0.7175,0.7175,90.231,0.365,1.42,-0.71,0.71
218,30,89.884,2.61469,0.477,1.86984,-0.9357,0.9357,89.889,0.479,1.86,-0.93,0.93
219,30,89.737,2.69404,0.492,1.92864,-0.964,0.964,89.743,0.492,1.93,-0.98,0.95
220,30,89.6507,3.19599,0.584,2.28928,-1.1437,1.1437,89.646,0.585,2.27,-1.2,1.08
221,30,89.4127,3.49395,0.638,2.50096,-1.2503,1.2503,89.407,0.643,2.52,-1.29,1.23
222,30,89.783,3.16332,0.578,2.26576,-1.132,1.132,89.782,0.581,2.28,-1.2,1.08
223,30,89.395,2.25983,0.413,1.61896,-0.8087,0.8087,89.399,0.413,1.62,-0.82,0.8
224,30,90.0207,2.09161,0.382,1.49744,-0.7485,0.7485,90.017,0.382,1.51,-0.8,0.71
225,30,88.988,3.20945,0.586,2.29712,-1.1485,1.1485,88.989,0.588,2.28,-1.19,1.1
226,30,88.6643,3.11415,0.569,2.23048,-1.1144,1.1144,88.663,0.566,2.23,-1.15,1.07
227,30,89.8893,2.56706,0.469,1.83848,-0.9186,0.9186,89.882,0.468,1.83,-0.93,0.9
228,30,89.5963,3.27164,0.597,2.34024,-1.1707,1.1707,89.593,0.597,2.33,-1.23,1.11
229,30,89.011,2.71693,0.496,1.94432,-0.9722,0.9722,89.012,0.498,1.97,-1.0,0.97
230,30,89.5707,2.30792,0.421,1.65032,-0.8259,0.8259,89.578,0.422,1.67,-0.85,0.82
231,30,89.6967,2.83245,0.517,2.02664,-1.0136,1.0136,89.7,0.521,2.02,-1.05,0.97
232,30,89.335,2.79039,0.509,1.99528,-0.9985,0.9985,89.341,0.506,1.98,-1.01,0.97
233,30,89.6427,2.8849,0.527,2.06584,-1.0323,1.0323,89.641,0.529,2.08,-1.08,1.0
234,30,89.374,3.24454,0.592,2.32064,-1.161,1.161,89.373,0.595,2.32,-1.22,1.11
235,30,89.952,2.72706,0.498,1.95216,-0.9759,0.9759,89.951,0.499,1.94,-0.98,0.95
236,30,90.3087,2.58398,0.472,1.85024,-0.9247,0.9247,90.307,0.474,1.86,-0.95,0.92
237,30,89.8977,2.44597,0.447,1.75224,-0.8753,0.8753,89.9,0.451,1.77,-0.9,0.87
238,30,89.8203,1.89504,0.346,1.35632,-0.6781,0.6781,89.817,0.347,1.37,-0.68,0.68
239,30,89.3103,3.30523,0.603,2.36376,-1.1828,1.1828,89.31,0.602,2.35,-1.2,1.15
240,30,90.214,2.99718,0.547,2.14424,-1.0725,1.0725,90.212,0.546,2.17,-1.12,1.05
241,30,88.8983,3.33761,0.609,2.38728,-1.1943,1.1943,88.899,0.606,2.38,-1.22,1.16
242,30,90.2277,2.66005,0.486,1.90512,-0.9519,0.9519,90.224,0.48,1.87,-0.95,0.93
243,30,89.395,2.95097,0.539,2.11288,-1.056,1.056,89.396,0.538,2.12,-1.11,1.02
244,30,89.9597,2.72768,0.498,1.95216,-0.9761,0.9761,89.964,0.499,1.94,-1.01,0.94
245,30,89.1027,3.10769,0.567,2.22264,-1.1121,1.1121,89.099,0.567,2.22,-1.13,1.09
246,30,89.6863,2.90058,0.53,2.0776,-1.038,1.038,89.682,0.529,2.07,-1.06,1.01
247,30,89.466,3.31964,0.606,2.37552,-1.1879,1.1879,89.463,0.601,2.33,-1.23,1.11
248,30,89.7507,2.63917,0.482,1.88944,-0.9444,0.9444,89.745,0.489,1.92,-0.98,0.93
249,30,89.8763,2.11214,0.386,1.51312,-0.7558,0.7558,89.875,0.382,1.5,-0.76,0.75
250,30,89.1497,3.29053,0.601,2.35592,-1.1775,1.1775,89.151,0.597,2.33,-1.21,1.12
251,30,90.0303,2.84406,0.519,2.03448,-1.0177,1.0177,90.033,0.519,2.02,-1.02,1.01
252,30,89.1793,2.32183,0.424,1.66208,-0.8309,0.8309,89.187,0.421,1.64,-0.83,0.82
253,30,90.0193,2.65969,0.486,1.90512,-0.9518,0.9518,90.019,0.484,1.9,-0.96,0.94
254,30,89.541,2.47122,0.451,1.76792,-0.8843,0.8843,89.543,0.456,1.79,-0.93,0.87
255,30,90.1423,2.7464,0.501,1.96392,-0.9828,0.9828,90.148,0.498,1.95,-0.98,0.97
256,30,89.444,3.13777,0.573,2.24616,-1.1228,1.1228,89.448,0.567,2.22,-1.15,1.06
257,30,89.614,2.73316,0.499,1.95608,-0.978,0.978,89.613,0.499,1.97,-1.01,0.96
258,30,89.2147,3.39341,0.62,2.4304,-1.2143,1.2143,89.22,0.619,2.41,-1.26,1.15
259,30,89.1743,2.80109,0.511,2.00312,-1.0024,1.0024,89.185,0.513,2.01,-1.03,0.98
260,30,89.708,2.97744,0.544,2.13248,-1.0655,1.0655,89.711,0.543,2.13,-1.09,1.04
261,30,90.0437,2.94618,0.538,2.10896,-1.0543,1.0543,90.047,0.54,2.11,-1.08,1.03
262,30,89.0373,3.4959,0.638,2.50096,-1.251,1.251,89.037,0.633,2.49,-1.25,1.23
263,30,89.6117,2.62832,0.48,1.8816,-0.9405,0.9405,89.62,0.48,1.88,-0.94,0.94
264,30,89.391,2.81838,0.515,2.0188,-1.0085,1.0085,89.391,0.511,1.99,-1.01,0.98
265,30,89.514,2.76498,0.505,1.9796,-0.9894,0.9894,89.517,0.507,1.97,-1.0,0.97
266,30,89.1263,3.26471,0.596,2.33632,-1.1683,1.1683,89.122,0.6,2.36,-1.23,1.13
267,30,90.0593,2.49074,0.455,1.7836,-0.8913,0.8913,90.062,0.462,1.8,-0.92,0.88
268,30,90.42,2.35871,0.431,1.68952,-0.8441,0.8441,90.423,0.43,1.68,-0.84,0.84
269,30,89.6453,2.94721,0.538,2.10896,-1.0546,1.0546,89.653,0.53,2.07,-1.06,1.01
270,30,90.4153,2.12022,0.387,1.51704,-0.7587,0.7587,90.416,0.386,1.52,-0.76,0.75
271,30,88.446,3.17642,0.58,2.2736,-1.1367,1.1367,88.446,0.579,2.24,-1.15,1.1
272,30,89.8813,2.70359,0.494,1.93648,-0.9675,0.9675,89.884,0.493,1.93,-1.0,0.94
273,30,88.962,3.38825,0.619,2.42648,-1.2125,1.2125,88.959,0.617,2.41,-1.25,1.15
274,30,89.817,2.56083,0.468,1.83456,-0.9164,0.9164,89.815,0.467,1.83,-0.94,0.89
275,30,89.6727,2.86045,0.522,2.04624,-1.0236,1.0236,89.677,0.522,2.06,-1.05,1.01
276,30,90.2443,2.64163,0.482,1.88944,-0.9453,0.9453,90.243,0.479,1.88,-0.99,0.89
277,30,90.5383,2.04256,0.373,1.46216,-0.7309,0.7309,90.541,0.372,1.46,-0.75,0.7
278,30,89.3383,3.0899,0.564,2.21088,-1.1057,1.1057,89.34,0.563,2.22,-1.14,1.08
279,30,89.578,2.60236,0.475,1.862,-0.9312,0.9312,89.569,0.478,1.88,-0.98,0.91
280,30,89.2147,3.17576,0.58,2.2736,-1.1364,1.1364,89.216,0.581,2.27,-1.15,1.12
281,30,90.5827,2.20409,0.402,1.57584,-0.7887,0.7887,90.585,0.404,1.57,-0.82,0.75
282,30,89.736,2.91812,0.533,2.08936,-1.0442,1.0442,89.738,0.534,2.08,-1.11,0.97
283,30,89.4897,3.12095,0.57,2.2344,-1.1168,1.1168,89.495,0.569,2.25,-1.18,1.07
284,30,90.3823,2.53709,0.463,1.81496,-0.9079,0.9079,90.385,0.463,1.8,-0.93,0.87
285,30,90.0727,2.53826,0.463,1.81496,-0.9083,0.9083,90.077,0.461,1.81,-0.94,0.87
286,30,90.067,2.78586,0.509,1.99528,-0.9969,0.9969,90.073,0.509,1.99,-1.03,0.96
287,30,89.589,2.46582,0.45,1.764,-0.8824,0.8824,89.592,0.449,1.74,-0.88,0.86
288,30,89.49,2.95094,0.539,2.11288,-1.056,1.056,89.49,0.537,2.1,-1.04,1.06
289,30,89.3607,2.96145,0.541,2.12072,-1.0597,1.0597,89.361,0.539,2.1,-1.1,1.0
290,30,90.1857,2.14998,0.393,1.54056,-0.7694,0.7694,90.185,0.391,1.53,-0.77,0.76
291,30,89.5873,2.7737,0.506,1.98352,-0.9926,0.9926,89.585,0.504,1.98,-1.01,0.97
292,30,90.2007,2.33612,0.427,1.67384,-0.836,0.836,90.206,0.426,1.65,-0.86,0.8
293,30,89.626,3.19431,0.583,2.28536,-1.1431,1.1431,89.63,0.585,2.3,-1.19,1.11
294,30,89.2333,2.62953,0.48,1.8816,-0.941,0.941,89.232,0.481,1.89,-0.96,0.93
295,30,89.8347,3.07894,0.562,2.20304,-1.1018,1.1018,89.838,0.564,2.2,-1.16,1.04
296,30,90.1157,2.22949,0.407,1.59544,-0.7978,0.7978,90.113,0.408,1.59,-0.78,0.8
297,30,89.058,2.88844,0.527,2.06584,-1.0336,1.0336,89.056,0.524,2.07,-1.06,1.0
298,30,89.97,2.07653,0.379,1.48568,-0.7431,0.7431,89.974,0.378,1.48,-0.75,0.73
299,30,89.8117,2.78954,0.509,1.99528,-0.9982,0.9982,89.811,0.505,1.98,-1.01,0.97
300,50,89.668,2.82622,0.4,1.568,-0.7834,0.7834,89.667,0.402,1.57,-0.81,0.76
301,50,89.9542,2.62877,0.372,1.45824,-0.7287,0.7287,89.954,0.371,1.45,-0.74,0.71
302,50,89.8254,2.72592,0.386,1.51312,-0.7556,0.7556,89.824,0.381,1.5,-0.77,0.74
303,50,89.6166,2.58642,0.366,1.43472,-0.7169,0.7169,89.612,0.364,1.44,-0.72,0.72
304,50,89.7812,2.71933,0.385,1.5092,-0.7538,0.7538,89.781,0.383,1.49,-0.77,0.72
305,50,89.8816,2.91123,0.412,1.61504,-0.807,0.807,89.877,0.411,1.6,-0.82,0.78
306,50,89.413,2.73422,0.387,1.51704,-0.7579,0.7579,89.415,0.385,1.51,-0.76,0.75
307,50,89.9702,2.58454,0.366,1.43472,-0.7164,0.7164,89.972,0.368,1.44,-0.75,0.69
308,50,89.7296,2.55352,0.361,1.41512,-0.7078,0.7078,89.734,0.36,1.42,-0.72,0.7
309,50,89.4776,2.80927,0.397,1.55624,-0.7787,0.7787,89.477,0.401,1.56,-0.79,0.77
310,50,89.2932,2.76786,0.391,1.53272,-0.7672,0.7672,89.293,0.389,1.53,-0.77,0.75
311,50,90.1726,2.79803,0.396,1.55232,-0.7756,0.7756,90.174,0.394,1.56,-0.81,0.75
312,50,89.4476,2.58616,0.366,1.43472,-0.7168,0.7168,89.453,0.369,1.44,-0.74,0.7
313,50,89.6772,2.6516,0.375,1.47,-0.735,0.735,89.671,0.375,1.45,-0.74,0.72
314,50,89.6514,3.10528,0.439,1.72088,-0.8607,0.8607,89.653,0.438,1.72,-0.88,0.84
315,50,89.6226,2.83109,0.4,1.568,-0.7847,0.7847,89.624,0.399,1.55,-0.8,0.76
316,50,89.4264,2.66327,0.377,1.47784,-0.7382,0.7382,89.433,0.376,1.48,-0.76,0.72
317,50,89.7156,2.67912,0.379,1.48568,-0.7426,0.7426,89.715,0.38,1.48,-0.75,0.72
318,50,90.2884,2.27108,0.321,1.25832,-0.6295,0.6295,90.289,0.323,1.27,-0.64,0.63
319,50,89.6876,2.45837,0.348,1.36416,-0.6814,0.6814,89.688,0.345,1.35,-0.69,0.66
320,50,89.9082,2.91728,0.413,1.61896,-0.8086,0.8086,89.908,0.412,1.61,-0.81,0.8
321,50,89.943,2.49779,0.353,1.38376,-0.6924,0.6924,89.945,0.352,1.38,-0.71,0.67
322,50,89.8138,2.75435,0.39,1.5288,-0.7635,0.7635,89.817,0.385,1.51,-0.77,0.74
323,50,89.5344,2.84989,0.403,1.57976,-0.7899,0.7899,89.538,0.398,1.57,-0.82,0.76
324,50,89.812,2.74115,0.388,1.52096,-0.7598,0.7598,89.814,0.388,1.52,-0.79,0.73
325,50,89.6388,3.09883,0.438,1.71696,-0.859,0.859,89.633,0.442,1.73,-0.88,0.85
326,50,89.5822,3.07067,0.434,1.70128,-0.8511,0.8511,89.583,0.437,1.73,-0.89,0.83
327,50,89.8086,2.89658,0.41,1.6072,-0.8029,0.8029,89.804,0.41,1.61,-0.82,0.79
328,50,89.7588,2.92866,0.414,1.62288,-0.8118,0.8118,89.765,0.416,1.65,-0.83,0.81
329,50,89.4702,2.68239,0.379,1.48568,-0.7435,0.7435,89.47,0.378,1.48,-0.75,0.73
330,50,90.1154,2.38262,0.337,1.32104,-0.6604,0.6604,90.117,0.336,1.32,-0.68,0.64
331,50,89.785,2.94286,0.416,1.63072,-0.8157,0.8157,89.792,0.415,1.61,-0.82,0.79
332,50,89.7808,2.84507,0.402,1.57584,-0.7886,0.7886,89.781,0.404,1.59,-0.8,0.79
333,50,89.7654,2.28455,0.323,1.26616,-0.6332,0.6332,89.764,0.32,1.25,-0.64,0.61
334,50,90.1074,2.41541,0.342,1.34064,-0.6695,0.6695,90.107,0.34,1.33,-0.67,0.66
335,50,89.801,2.76608,0.391,1.53272,-0.7667,0.7667,89.804,0.395,1.55,-0.79,0.77
336,50,89.7794,3.06483,0.433,1.69736,-0.8495,0.8495,89.777,0.434,1.73,-0.9,0.82
337,50,89.5268,2.89092,0.409,1.60328,-0.8013,0.8013,89.523,0.408,1.6,-0.82,0.79
338,50,89.5688,2.89179,0.409,1.60328,-0.8016,0.8016,89.573,0.41,1.61,-0.83,0.79
339,50,89.9194,2.66255,0.377,1.47784,-0.738,0.738,89.925,0.379,1.48,-0.76,0.72
340,50,90.0254,2.88445,0.408,1.59936,-0.7995,0.7995,90.026,0.41,1.6,-0.83,0.77
341,50,89.9184,2.22054,0.314,1.23088,-0.6155,0.6155,89.918,0.316,1.23,-0.62,0.61
342,50,90.1222,2.61088,0.369,1.44648,-0.7237,0.7237,90.122,0.369,1.44,-0.73,0.71
343,50,90.2948,2.16247,0.306,1.19952,-0.5994,0.5994,90.294,0.307,1.21,-0.63,0.57
344,50,89.8038,2.82437,0.399,1.56408,-0.7829,0.7829,89.803,0.396,1.56,-0.81,0.75
345,50,90.0812,2.78014,0.393,1.54056,-0.7706,0.7706,90.081,0.395,1.55,-0.79,0.76
346,50,89.36,2.6667,0.377,1.47784,-0.7392,0.7392,89.366,0.375,1.46,-0.73,0.73
347,50,90.0046,2.5782,0.365,1.4308,-0.7146,0.7146,90.004,0.366,1.44,-0.74,0.71
348,50,89.3544,2.73907,0.387,1.51704,-0.7592,0.7592,89.354,0.388,1.52,-0.78,0.74
349,50,89.6136,2.53846,0.359,1.40728,-0.7036,0.7036,89.62,0.358,1.4,-0.71,0.69
350,50,89.4106,2.78623,0.394,1.54448,-0.7723,0.7723,89.408,0.394,1.53,-0.79,0.75
351,50,89.726,2.56209,0.362,1.41904,-0.7102,0.7102,89.727,0.359,1.41,-0.72,0.69
352,50,89.4538,2.7679,0.391,1.53272,-0.7672,0.7672,89.453,0.392,1.54,-0.79,0.75
353,50,89.4098,3.32446,0.47,1.8424,-0.9215,0.9215,89.405,0.476,1.87,-0.95,0.92
354,50,89.965,3.15218,0.446,1.74832,-0.8737,0.8737,89.968,0.441,1.72,-0.88,0.84
355,50,89.7172,2.89998,0.41,1.6072,-0.8038,0.8038,89.714,0.407,1.6,-0.81,0.79
356,50,89.5944,3.0394,0.43,1.6856,-0.8425,0.8425,89.597,0.432,1.7,-0.88,0.83
357,50,89.2904,3.04728,0.431,1.68952,-0.8447,0.8447,89.29,0.43,1.68,-0.86,0.82
358,50,90.3378,2.4126,0.341,1.33672,-0.6687,0.6687,90.338,0.34,1.34,-0.69,0.65
359,50,89.8206,2.9807,0.422,1.65424,-0.8262,0.8262,89.823,0.421,1.65,-0.86,0.8
360,50,89.4486,2.70178,0.382,1.49744,-0.7489,0.7489,89.448,0.386,1.51,-0.76,0.74
361,50,90.3534,2.43683,0.345,1.3524,-0.6755,0.6755,90.354,0.345,1.36,-0.69,0.68
362,50,89.76,2.75583,0.39,1.5288,-0.7639,0.7639,89.757,0.392,1.53,-0.77,0.75
363,50,89.5446,2.71154,0.383,1.50136,-0.7516,0.7516,89.54,0.389,1.51,-0.78,0.73
364,50,89.8418,2.84782,0.403,1.57976,-0.7894,0.7894,89.843,0.401,1.56,-0.8,0.75
365,50,89.9708,2.74574,0.388,1.52096,-0.7611,0.7611,89.968,0.39,1.53,-0.79,0.75
366,50,89.7916,2.66004,0.376,1.47392,-0.7373,0.7373,89.785,0.375,1.47,-0.75,0.72
367,50,89.4604,2.43535,0.344,1.34848,-0.675,0.675,89.457,0.347,1.36,-0.69,0.67
368,50,89.6364,2.82373,0.399,1.56408,-0.7827,0.7827,89.635,0.402,1.59,-0.81,0.77
369,50,89.8448,2.62281,0.371,1.45432,-0.727,0.727,89.846,0.371,1.46,-0.74,0.72
370,50,90.096,2.43619,0.345,1.3524,-0.6753,0.6753,90.103,0.342,1.35,-0.69,0.66
371,50,90.086,2.44908,0.346,1.35632,-0.6788,0.6788,90.088,0.346,1.36,-0.7,0.66
372,50,89.2446,2.5209,0.357,1.39944,-0.6988,0.6988,89.248,0.355,1.39,-0.71,0.68
373,50,89.363,2.68456,0.38,1.4896,-0.7441,0.7441,89.363,0.381,1.49,-0.75,0.74
374,50,89.7616,2.79339,0.395,1.5484,-0.7743,0.7743,89.76,0.394,1.53,-0.78,0.75
375,50,90.0044,2.42345,0.343,1.34456,-0.6717,0.6717,90.005,0.341,1.32,-0.67,0.66
376,50,89.7448,2.57846,0.365,1.4308,-0.7147,0.7147,89.744,0.367,1.44,-0.73,0.71
377,50,89.7038,2.62983,0.372,1.45824,-0.729,0.729,89.705,0.374,1.47,-0.75,0.72
378,50,90.204,2.18239,0.309,1.21128,-0.6049,0.6049,90.207,0.307,1.2,-0.61,0.58
379,50,89.5524,2.99771,0.424,1.66208,-0.8309,0.8309,89.552,0.418,1.63,-0.82,0.8
380,50,89.7948,3.0254,0.428,1.67776,-0.8386,0.8386,89.79,0.429,1.68,-0.87,0.81
381,50,89.7054,2.68801,0.38,1.4896,-0.7451,0.7451,89.706,0.382,1.49,-0.76,0.73
382,50,90.2834,2.70196,0.382,1.49744,-0.7489,0.7489,90.283,0.386,1.51,-0.77,0.74
383,50,90.0782,2.64916,0.375,1.47,-0.7343,0.7343,90.079,0.376,1.48,-0.76,0.72
384,50,90.0288,2.4281,0.343,1.34456,-0.673,0.673,90.031,0.339,1.32,-0.68,0.64
385,50,89.8862,2.54586,0.36,1.4112,-0.7057,0.7057,89.886,0.358,1.41,-0.71,0.71
386,50,89.8548,2.38998,0.338,1.32496,-0.6625,0.6625,89.852,0.338,1.33,-0.67,0.66
387,50,89.1964,2.85737,0.404,1.58368,-0.792,0.792,89.201,0.405,1.6,-0.8,0.8
388,50,89.6278,2.81071,0.397,1.55624,-0.7791,0.7791,89.63,0.402,1.58,-0.81,0.77
389,50,89.4154,2.55618,0.361,1.41512,-0.7085,0.7085,89.418,0.361,1.41,-0.71,0.69
390,50,90.0962,2.58768,0.366,1.43472,-0.7173,0.7173,90.095,0.367,1.43,-0.72,0.7
391,50,89.8788,2.42302,0.343,1.34456,-0.6716,0.6716,89.88,0.342,1.34,-0.68,0.66
392,50,90.137,2.50964,0.355,1.3916,-0.6956,0.6956,90.132,0.357,1.39,-0.71,0.69
393,50,90.4068,2.62983,0.372,1.45824,-0.729,0.729,90.406,0.372,1.46,-0.75,0.71
394,50,89.1678,2.5878,0.366,1.43472,-0.7173,0.7173,89.174,0.365,1.43,-0.72,0.72
395,50,89.8404,3.19647,0.452,1.77184,-0.886,0.886,89.839,0.452,1.78,-0.92,0.86
396,50,89.4506,2.95283,0.418,1.63856,-0.8185,0.8185,89.449,0.419,1.63,-0.84,0.79
397,50,89.9838,2.61455,0.37,1.4504,-0.7247,0.7247,89.98,0.367,1.44,-0.73,0.71
398,50,89.7506,2.68901,0.38,1.4896,-0.7454,0.7454,89.753,0.379,1.47,-0.74,0.72
399,50,89.7322,2.91566,0.412,1.61504,-0.8082,0.8082,89.734,0.415,1.64,-0.85,0.78
400,100,89.7934,2.79747,0.28,1.0976,-0.5483,0.5483,89.795,0.281,1.12,-0.57,0.55
401,100,89.6974,2.8102,0.281,1.10152,-0.5508,0.5508,89.695,0.285,1.12,-0.57,0.54
402,100,89.6367,2.86034,0.286,1.12112,-0.5606,0.5606,89.64,0.285,1.11,-0.57,0.54
403,100,89.7477,2.81151,0.281,1.10152,-0.5511,0.5511,89.746,0.278,1.1,-0.56,0.54
404,100,89.6953,2.84065,0.284,1.11328,-0.5568,0.5568,89.692,0.283,1.11,-0.57,0.54
405,100,89.6421,2.82074,0.282,1.10544,-0.5529,0.5529,89.642,0.283,1.11,-0.56,0.55
406,100,89.8255,2.75057,0.275,1.078,-0.5391,0.5391,89.832,0.274,1.07,-0.55,0.52
407,100,89.8338,2.66942,0.267,1.04664,-0.5232,0.5232,89.835,0.265,1.04,-0.52,0.52
408,100,89.6889,2.82047,0.282,1.10544,-0.5528,0.5528,89.686,0.28,1.1,-0.56,0.54
409,100,89.7177,2.84445,0.284,1.11328,-0.5575,0.5575,89.719,0.287,1.12,-0.57,0.55
410,100,89.8079,2.70563,0.271,1.06232,-0.5303,0.5303,89.809,0.272,1.07,-0.54,0.53
411,100,89.6873,2.83688,0.284,1.11328,-0.556,0.556,89.688,0.284,1.1,-0.56,0.54
412,100,89.6854,2.88856,0.289,1.13288,-0.5662,0.5662,89.685,0.291,1.14,-0.58,0.57
413,100,89.7532,2.8324,0.283,1.10936,-0.5551,0.5551,89.754,0.283,1.12,-0.57,0.55
414,100,89.6826,2.79551,0.28,1.0976,-0.5479,0.5479,89.685,0.281,1.09,-0.56,0.54
415,100,89.8,2.80595,0.281,1.10152,-0.55,0.55,89.799,0.282,1.11,-0.57,0.54
416,100,89.7365,2.81239,0.281,1.10152,-0.5512,0.5512,89.735,0.279,1.1,-0.55,0.55
417,100,89.5658,2.81582,0.282,1.10544,-0.5519,0.5519,89.566,0.281,1.11,-0.56,0.54
418,100,89.6684,2.77479,0.277,1.08584,-0.5439,0.5439,89.674,0.279,1.1,-0.55,0.54
419,100,89.7264,2.80233,0.28,1.0976,-0.5493,0.5493,89.732,0.28,1.1,-0.56,0.54
420,100,89.6173,2.83126,0.283,1.10936,-0.5549,0.5549,89.618,0.285,1.11,-0.57,0.54
421,100,89.6553,2.86749,0.287,1.12504,-0.562,0.562,89.658,0.287,1.12,-0.57,0.55
422,100,89.588,2.84652,0.285,1.1172,-0.5579,0.5579,89.587,0.284,1.11,-0.56,0.55
423,100,89.8185,2.81175,0.281,1.10152,-0.5511,0.5511,89.819,0.28,1.09,-0.55,0.55
424,100,89.7327,2.67846,0.268,1.05056,-0.525,0.525,89.73,0.27,1.05,-0.54,0.51
425,100,89.757,2.73706,0.274,1.07408,-0.5365,0.5365,89.756,0.274,1.07,-0.55,0.53
426,100,89.7677,2.82054,0.282,1.10544,-0.5528,0.5528,89.769,0.281,1.1,-0.57,0.53
427,100,89.7383,2.8635,0.286,1.12112,-0.5612,0.5612,89.738,0.288,1.13,-0.58,0.55
428,100,89.7096,2.75912,0.276,1.08192,-0.5408,0.5408,89.71,0.273,1.06,-0.54,0.52
429,100,89.6658,2.80365,0.28,1.0976,-0.5495,0.5495,89.668,0.278,1.09,-0.56,0.54
430,100,89.808,2.73316,0.273,1.07016,-0.5357,0.5357,89.806,0.273,1.07,-0.54,0.53
431,100,89.6413,2.85475,0.285,1.1172,-0.5595,0.5595,89.645,0.283,1.11,-0.56,0.54
432,100,89.739,2.83984,0.284,1.11328,-0.5566,0.5566,89.742,0.285,1.12,-0.57,0.55
433,100,89.7536,2.80654,0.281,1.10152,-0.5501,0.5501,89.753,0.282,1.09,-0.56,0.54
434,100,90.1035,2.47049,0.247,0.96824,-0.4842,0.4842,90.104,0.25,0.98,-0.5,0.48
435,100,89.6867,2.89,0.289,1.13288,-0.5664,0.5664,89.686,0.287,1.12,-0.57,0.56
436,100,89.7072,2.88979,0.289,1.13288,-0.5664,0.5664,89.709,0.289,1.14,-0.58,0.56
437,100,89.6353,2.82058,0.282,1.10544,-0.5528,0.5528,89.634,0.282,1.11,-0.56,0.55
438,100,89.6981,2.84294,0.284,1.11328,-0.5572,0.5572,89.695,0.284,1.12,-0.57,0.55
439,100,89.7384,2.75483,0.275,1.078,-0.5399,0.5399,89.739,0.274,1.07,-0.55,0.52
440,100,89.715,2.77998,0.278,1.08976,-0.5449,0.5449,89.714,0.277,1.08,-0.55,0.53
441,100,89.6652,2.88451,0.288,1.12896,-0.5654,0.5654,89.665,0.286,1.13,-0.57,0.55
442,100,89.8159,2.82554,0.283,1.10936,-0.5538,0.5538,89.815,0.285,1.12,-0.57,0.55
443,100,89.5912,2.84864,0.285,1.1172,-0.5583,0.5583,89.592,0.283,1.11,-0.56,0.55
444,100,89.6571,2.76627,0.277,1.08584,-0.5422,0.5422,89.66,0.276,1.08,-0.55,0.53
445,100,89.7576,2.77915,0.278,1.08976,-0.5447,0.5447,89.76,0.282,1.11,-0.57,0.54
446,100,89.8329,2.64639,0.265,1.0388,-0.5187,0.5187,89.833,0.263,1.03,-0.53,0.51
447,100,89.6518,2.8292,0.283,1.10936,-0.5545,0.5545,89.65,0.283,1.1,-0.56,0.54
448,100,89.8528,2.71849,0.272,1.06624,-0.5328,0.5328,89.858,0.277,1.09,-0.56,0.53
449,100,89.7238,2.72436,0.272,1.06624,-0.534,0.534,89.725,0.273,1.07,-0.56,0.52
450,100,89.8372,2.81085,0.281,1.10152,-0.5509,0.5509,89.837,0.282,1.09,-0.56,0.54
451,100,89.8393,2.74882,0.275,1.078,-0.5388,0.5388,89.84,0.277,1.08,-0.55,0.53
452,100,89.8379,2.76504,0.277,1.08584,-0.5419,0.5419,89.837,0.276,1.08,-0.55,0.53
453,100,89.8284,2.7896,0.279,1.09368,-0.5468,0.5468,89.826,0.282,1.11,-0.56,0.55
454,100,89.7164,2.76967,0.277,1.08584,-0.5429,0.5429,89.716,0.276,1.08,-0.55,0.53
455,100,89.7239,2.80716,0.281,1.10152,-0.5502,0.5502,89.726,0.281,1.11,-0.56,0.54
456,100,89.7138,2.83059,0.283,1.10936,-0.5548,0.5548,89.715,0.282,1.1,-0.56,0.53
457,100,89.6132,2.86452,0.286,1.12112,-0.5614,0.5614,89.616,0.287,1.13,-0.58,0.55
458,100,89.585,2.8375,0.284,1.11328,-0.5562,0.5562,89.586,0.284,1.12,-0.57,0.55
459,100,89.7494,2.75031,0.275,1.078,-0.5391,0.5391,89.747,0.274,1.08,-0.55,0.53
460,100,89.8906,2.62832,0.263,1.03096,-0.5152,0.5152,89.888,0.264,1.02,-0.52,0.5
461,100,89.5739,2.82551,0.283,1.10936,-0.5538,0.5538,89.572,0.282,1.1,-0.56,0.54
462,100,89.6581,2.8419,0.284,1.11328,-0.557,0.557,89.658,0.284,1.11,-0.57,0.54
463,100,89.6596,2.87488,0.287,1.12504,-0.5635,0.5635,89.659,0.285,1.12,-0.57,0.55
464,100,89.5894,2.81097,0.281,1.10152,-0.5509,0.5509,89.59,0.279,1.09,-0.55,0.54
465,100,89.5863,2.77815,0.278,1.08976,-0.5445,0.5445,89.587,0.275,1.08,-0.54,0.53
466,100,89.6397,2.86391,0.286,1.12112,-0.5613,0.5613,89.635,0.286,1.12,-0.57,0.55
467,100,89.7273,2.82183,0.282,1.10544,-0.5531,0.5531,89.729,0.28,1.1,-0.56,0.54
468,100,89.7052,2.69219,0.269,1.05448,-0.5277,0.5277,89.7,0.271,1.06,-0.54,0.52
469,100,89.8013,2.77898,0.278,1.08976,-0.5447,0.5447,89.794,0.28,1.09,-0.56,0.53
470,100,89.7338,2.6891,0.269,1.05448,-0.5271,0.5271,89.733,0.273,1.08,-0.54,0.53
471,100,89.6449,2.8369,0.284,1.11328,-0.556,0.556,89.648,0.282,1.1,-0.57,0.53
472,100,89.6808,2.79976,0.28,1.0976,-0.5488,0.5488,89.685,0.279,1.1,-0.56,0.53
473,100,89.7126,2.64776,0.265,1.0388,-0.519,0.519,89.716,0.266,1.03,-0.52,0.51
474,100,89.7184,2.7219,0.272,1.06624,-0.5335,0.5335,89.716,0.271,1.07,-0.55,0.52
475,100,89.6383,2.78322,0.278,1.08976,-0.5455,0.5455,89.638,0.278,1.1,-0.56,0.54
476,100,89.7038,2.7246,0.272,1.06624,-0.534,0.534,89.703,0.271,1.06,-0.54,0.52
477,100,89.7644,2.82423,0.282,1.10544,-0.5535,0.5535,89.763,0.285,1.1,-0.57,0.54
478,100,89.7392,2.75848,0.276,1.08192,-0.5407,0.5407,89.741,0.279,1.08,-0.55,0.54
479,100,89.8679,2.71974,0.272,1.06624,-0.5331,0.5331,89.867,0.271,1.07,-0.54,0.52
480,100,89.6597,2.8272,0.283,1.10936,-0.5541,0.5541,89.654,0.281,1.11,-0.57,0.55
481,100,89.8035,2.76108,0.276,1.08192,-0.5412,0.5412,89.802,0.276,1.07,-0.55,0.53
482,100,89.7691,2.77282,0.277,1.08584,-0.5435,0.5435,89.766,0.278,1.09,-0.55,0.54
483,100,89.6769,2.84787,0.285,1.1172,-0.5582,0.5582,89.68,0.284,1.11,-0.57,0.54
484,100,89.666,2.75381,0.275,1.078,-0.5397,0.5397,89.664,0.274,1.07,-0.55,0.52
485,100,89.836,2.62601,0.263,1.03096,-0.5147,0.5147,89.836,0.26,1.01,-0.52,0.5
486,100,89.788,2.76999,0.277,1.08584,-0.5429,0.5429,89.785,0.276,1.09,-0.56,0.53
487,100,89.5961,2.84319,0.284,1.11328,-0.5573,0.5573,89.597,0.286,1.12,-0.57,0.55
488,100,89.7152,2.83952,0.284,1.11328,-0.5565,0.5565,89.716,0.284,1.12,-0.56,0.55
489,100,89.7027,2.7589,0.276,1.08192,-0.5407,0.5407,89.703,0.279,1.1,-0.56,0.53
490,100,89.6479,2.83955,0.284,1.11328,-0.5566,0.5566,89.652,0.283,1.12,-0.57,0.54
491,100,89.5948,2.82681,0.283,1.10936,-0.5541,0.5541,89.595,0.285,1.11,-0.57,0.55
492,100,89.8239,2.77221,0.277,1.08584,-0.5434,0.5434,89.825,0.28,1.1,-0.56,0.54
493,100,89.8013,2.8074,0.281,1.10152,-0.5503,0.5503,89.8,0.283,1.11,-0.57,0.54
494,100,89.7566,2.76628,0.277,1.08584,-0.5422,0.5422,89.759,0.276,1.08,-0.54,0.54
495,100,89.7806,2.70649,0.271,1.06232,-0.5305,0.5305,89.778,0.27,1.07,-0.55,0.52
496,100,89.6468,2.77981,0.278,1.08976,-0.5448,0.5448,89.646,0.279,1.09,-0.56,0.53
497,100,89.7286,2.81009,0.281,1.10152,-0.5508,0.5508,89.724,0.282,1.1,-0.56,0.54
498,100,89.7297,2.61861,0.262,1.02704,-0.5132,0.5132,89.728,0.26,1.02,-0.51,0.5
499,100,89.693,2.85727,0.286,1.12112,-0.56,0.56,89.693,0.285,1.12,-0.57,0.55
500,110,89.7137,2.7844,0.265,1.0388,-0.5203,0.5203,89.715,0.263,1.04,-0.52,0.51
501,110,89.7137,2.7844,0.265,1.0388,-0.5203,0.5203,89.715,0.266,1.04,-0.53,0.52
502,110,89.7137,2.7844,0.265,1.0388,-0.5203,0.5203,89.711,0.265,1.03,-0.53,0.51
503,110,89.7137,2.7844,0.265,1.0388,-0.5203,0.5203,89.716,0.264,1.02,-0.52,0.51
504,110,89.7137,2.7844,0.265,1.0388,-0.5203,0.5203,89.709,0.268,1.04,-0.53,0.51
505,110,89.7137,2.7844,0.265,1.0388,-0.5203,0.5203,89.713,0.267,1.04,-0.53,0.51
506,110,89.7137,2.7844,0.265,1.0388,-0.5203,0.5203,89.712,0.266,1.05,-0.53,0.52
507,110,89.7137,2.7844,0.265,1.0388,-0.5203,0.5203,89.717,0.268,1.04,-0.53,0.51
508,110,89.7137,2.7844,0.265,1.0388,-0.5203,0.5203,89.718,0.265,1.03,-0.52,0.51
509,110,89.7137,2.7844,0.265,1.0388,-0.5203,0.5203,89.719,0.266,1.04,-0.53,0.51
510,110,89.7137,2.7844,0.265,1.0388,-0.5203,0.5203,89.712,0.265,1.04,-0.52,0.52
511,110,89.7137,2.7844,0.265,1.0388,-0.5203,0.5203,89.712,0.265,1.04,-0.53,0.51
512,110,89.7137,2.7844,0.265,1.0388,-0.5203,0.5203,89.715,0.266,1.04,-0.54,0.51
513,110,89.7137,2.7844,0.265,1.0388,-0.5203,0.5203,89.717,0.266,1.04,-0.53,0.5
514,110,89.7137,2.7844,0.265,1.0388,-0.5203,0.5203,89.713,0.266,1.05,-0.53,0.51
515,110,89.7137,2.7844,0.265,1.0388,-0.5203,0.5203,89.715,0.265,1.04,-0.53,0.51
516,110,89.7137,2.7844,0.265,1.0388,-0.5203,0.5203,89.717,0.266,1.04,-0.53,0.51
517,110,89.7137,2.7844,0.265,1.0388,-0.5203,0.5203,89.713,0.269,1.06,-0.53,0.52
518,110,89.7137,2.7844,0.265,1.0388,-0.5203,0.5203,89.714,0.265,1.05,-0.53,0.51
519,110,89.7137,2.7844,0.265,1.0388,-0.5203,0.5203,89.713,0.265,1.03,-0.53,0.51
520,110,89.7137,2.7844,0.265,1.0388,-0.5203,0.5203,89.712,0.266,1.06,-0.54,0.51
521,110,89.7137,2.7844,0.265,1.0388,-0.5203,0.5203,89.715,0.265,1.04,-0.52,0.51
522,110,89.7137,2.7844,0.265,1.0388,-0.5203,0.5203,89.714,0.264,1.04,-0.53,0.5
523,110,89.7137,2.7844,0.265,1.0388,-0.5203,0.5203,89.717,0.268,1.06,-0.54,0.52
524,110,89.7137,2.7844,0.265,1.0388,-0.5203,0.5203,89.71,0.263,1.04,-0.52,0.52
525,110,89.7137,2.7844,0.265,1.0388,-0.5203,0.5203,89.713,0.264,1.05,-0.53,0.51
526,110,89.7137,2.7844,0.265,1.0388,-0.5203,0.5203,89.713,0.269,1.04,-0.53,0.51
527,110,89.7137,2.7844,0.265,1.0388,-0.5203,0.5203,89.716,0.266,1.05,-0.53,0.51
528,110,89.7137,2.7844,0.265,1.0388,-0.5203,0.5203,89.714,0.265,1.04,-0.53,0.51
529,110,89.7137,2.7844,0.265,1.0388,-0.5203,0.5203,89.713,0.265,1.04,-0.52,0.52
530,110,89.7137,2.7844,0.265,1.0388,-0.5203,0.5203,89.71,0.266,1.04,-0.53,0.51
531,110,89.7137,2.7844,0.265,1.0388,-0.5203,0.5203,89.715,0.265,1.04,-0.53,0.51
532,110,89.7137,2.7844,0.265,1.0388,-0.5203,0.5203,89.71,0.262,1.03,-0.52,0.51
533,110,89.7137,2.7844,0.265,1.0388,-0.5203,0.5203,89.715,0.266,1.05,-0.53,0.52
534,110,89.7137,2.7844,0.265,1.0388,-0.5203,0.5203,89.714,0.267,1.04,-0.52,0.52
535,110,89.7137,2.7844,0.265,1.0388,-0.5203,0.5203,89.718,0.264,1.03,-0.53,0.51
536,110,89.7137,2.7844,0.265,1.0388,-0.5203,0.5203,89.713,0.265,1.03,-0.53,0.51
537,110,89.7137,2.7844,0.265,1.0388,-0.5203,0.5203,89.717,0.263,1.02,-0.52,0.51
538,110,89.7137,2.7844,0.265,1.0388,-0.5203,0.5203,89.718,0.268,1.05,-0.53,0.51
539,110,89.7137,2.7844,0.265,1.0388,-0.5203,0.5203,89.714,0.267,1.03,-0.53,0.5
540,110,89.7137,2.7844,0.265,1.0388,-0.5203,0.5203,89.716,0.266,1.05,-0.53,0.51
541,110,89.7137,2.7844,0.265,1.0388,-0.5203,0.5203,89.718,0.267,1.05,-0.54,0.51
542,110,89.7137,2.7844,0.265,1.0388,-0.5203,0.5203,89.713,0.263,1.05,-0.53,0.51
543,110,89.7137,2.7844,0.265,1.0388,-0.5203,0.5203,89.712,0.267,1.06,-0.54,0.52
544,110,89.7137,2.7844,0.265,1.0388,-0.5203,0.5203,89.714,0.265,1.04,-0.53,0.51
545,110,89.7137,2.7844,0.265,1.0388,-0.5203,0.5203,89.718,0.263,1.03,-0.52,0.51
546,110,89.7137,2.7844,0.265,1.0388,-0.5203,0.5203,89.713,0.266,1.05,-0.53,0.52
547,110,89.7137,2.7844,0.265,1.0388,-0.5203,0.5203,89.714,0.265,1.04,-0.53,0.51
548,110,89.7137,2.7844,0.265,1.0388,-0.5203,0.5203,89.712,0.266,1.04,-0.53,0.51
549,110,89.7137,2.7844,0.265,1.0388,-0.5203,0.5203,89.714,0.264,1.04,-0.53,0.51
550,110,89.7137,2.7844,0.265,1.0388,-0.5203,0.5203,89.716,0.265,1.03,-0.53,0.51
551,110,89.7137,2.7844,0.265,1.0388,-0.5203,0.5203,89.715,0.266,1.04,-0.53,0.52
552,110,89.7137,2.7844,0.265,1.0388,-0.5203,0.5203,89.713,0.266,1.04,-0.53,0.51
553,110,89.7137,2.7844,0.265,1.0388,-0.5203,0.5203,89.711,0.266,1.03,-0.53,0.51
554,110,89.7137,2.7844,0.265,1.0388,-0.5203,0.5203,89.711,0.265,1.03,-0.52,0.51
555,110,89.7137,2.7844,0.265,1.0388,-0.5203,0.5203,89.713,0.266,1.05,-0.53,0.52
556,110,89.7137,2.7844,0.265,1.0388,-0.5203,0.5203,89.716,0.265,1.03,-0.53,0.51
557,110,89.7137,2.7844,0.265,1.0388,-0.5203,0.5203,89.714,0.269,1.05,-0.54,0.52
558,110,89.7137,2.7844,0.265,1.0388,-0.5203,0.5203,89.715,0.265,1.04,-0.52,0.52
559,110,89.7137,2.7844,0.265,1.0388,-0.5203,0.5203,89.711,0.268,1.04,-0.53,0.51
560,110,89.7137,2.7844,0.265,1.0388,-0.5203,0.5203,89.718,0.266,1.04,-0.53,0.52
561,110,89.7137,2.7844,0.265,1.0388,-0.5203,0.5203,89.717,0.265,1.04,-0.53,0.51
562,110,89.7137,2.7844,0.265,1.0388,-0.5203,0.5203,89.712,0.266,1.04,-0.53,0.51
563,110,89.7137,2.7844,0.265,1.0388,-0.5203,0.5203,89.712,0.266,1.04,-0.53,0.51
564,110,89.7137,2.7844,0.265,1.0388,-0.5203,0.5203,89.711,0.264,1.04,-0.53,0.51
565,110,89.7137,2.7844,0.265,1.0388,-0.5203,0.5203,89.714,0.265,1.04,-0.53,0.52
566,110,89.7137,2.7844,0.265,1.0388,-0.5203,0.5203,89.712,0.267,1.04,-0.54,0.5
567,110,89.7137,2.7844,0.265,1.0388,-0.5203,0.5203,89.715,0.266,1.04,-0.53,0.51
568,110,89.7137,2.7844,0.265,1.0388,-0.5203,0.5203,89.711,0.267,1.04,-0.52,0.52
569,110,89.7137,2.7844,0.265,1.0388,-0.5203,0.5203,89.713,0.265,1.03,-0.53,0.5
570,110,89.7137,2.7844,0.265,1.0388,-0.5203,0.5203,89.711,0.266,1.05,-0.53,0.52
571,110,89.7137,2.7844,0.265,1.0388,-0.5203,0.5203,89.713,0.265,1.04,-0.52,0.52
572,110,89.7137,2.7844,0.265,1.0388,-0.5203,0.5203,89.714,0.266,1.05,-0.53,0.51
573,110,89.7137,2.7844,0.265,1.0388,-0.5203,0.5203,89.713,0.265,1.03,-0.52,0.51
574,110,89.7137,2.7844,0.265,1.0388,-0.5203,0.5203,89.718,0.264,1.02,-0.52,0.51
575,110,89.7137,2.7844,0.265,1.0388,-0.5203,0.5203,89.714,0.269,1.05,-0.53,0.52
576,110,89.7137,2.7844,0.265,1.0388,-0.5203,0.5203,89.716,0.263,1.04,-0.53,0.51
577,110,89.7137,2.7844,0.265,1.0388,-0.5203,0.5203,89.71,0.266,1.04,-0.52,0.52
578,110,89.7137,2.7844,0.265,1.0388,-0.5203,0.5203,89.715,0.265,1.04,-0.53,0.51
579,110,89.7137,2.7844,0.265,1.0388,-0.5203,0.5203,89.712,0.267,1.04,-0.53,0.52
580,110,89.7137,2.7844,0.265,1.0388,-0.5203,0.5203,89.709,0.266,1.05,-0.54,0.51
581,110,89.7137,2.7844,0.265,1.0388,-0.5203,0.5203,89.716,0.267,1.05,-0.53,0.52
582,110,89.7137,2.7844,0.265,1.0388,-0.5203,0.5203,89.713,0.267,1.04,-0.53,0.51
583,110,89.7137,2.7844,0.265,1.0388,-0.5203,0.5203,89.713,0.266,1.05,-0.53,0.51
584,110,89.7137,2.7844,0.265,1.0388,-0.5203,0.5203,89.714,0.267,1.05,-0.53,0.51
585,110,89.7137,2.7844,0.265,1.0388,-0.5203,0.5203,89.714,0.266,1.05,-0.53,0.51
586,110,89.7137,2.7844,0.265,1.0388,-0.5203,0.5203,89.715,0.266,1.03,-0.53,0.51
587,110,89.7137,2.7844,0.265,1.0388,-0.5203,0.5203,89.716,0.265,1.04,-0.52,0.52
588,110,89.7137,2.7844,0.265,1.0388,-0.5203,0.5203,89.714,0.267,1.05,-0.53,0.52
589,110,89.7137,2.7844,0.265,1.0388,-0.5203,0.5203,89.715,0.263,1.02,-0.52,0.51
590,110,89.7137,2.7844,0.265,1.0388,-0.5203,0.5203,89.716,0.264,1.03,-0.53,0.5
591,110,89.7137,2.7844,0.265,1.0388,-0.5203,0.5203,89.715,0.267,1.05,-0.53,0.52
592,110,89.7137,2.7844,0.265,1.0388,-0.5203,0.5203,89.713,0.265,1.04,-0.52,0.52
593,110,89.7137,2.7844,0.265,1.0388,-0.5203,0.5203,89.712,0.268,1.05,-0.52,0.52
594,110,89.7137,2.7844,0.265,1.0388,-0.5203,0.5203,89.716,0.263,1.03,-0.52,0.5
595,110,89.7137,2.7844,0.265,1.0388,-0.5203,0.5203,89.714,0.266,1.05,-0.53,0.51
596,110,89.7137,2.7844,0.265,1.0388,-0.5203,0.5203,89.715,0.264,1.04,-0.53,0.51
597,110,89.7137,2.7844,0.265,1.0388,-0.5203,0.5203,89.712,0.266,1.04,-0.53,0.51
598,110,89.7137,2.7844,0.265,1.0388,-0.5203,0.5203,89.713,0.265,1.03,-0.52,0.51
599,110,89.7137,2.7844,0.265,1.0388,-0.5203,0.5203,89.712,0.267,1.05,-0.54,0.51