File: segmentation_results/2D_Unet/Task004_SegVal_Hippocampus/subsampled-stats-DSC-Hippocampus-Jan1117/subsampled-stats-DSC-Hippocampus-Jan11.csv
,sample-set,u-kj,sigma-kj,SEM-kj,w-kj,A-kj,B-kj,u-kj-star,SEM-kj-star,w-kj-star,A-kj-star,B-kj-star
0,10,88.764,2.93209,0.927,3.63384,-1.8173,1.8173,88.765,0.933,3.63,-2.0,1.62
1,10,87.791,2.48137,0.785,3.0772,-1.538,1.538,87.795,0.777,3.06,-1.55,1.5
2,10,88.346,2.5906,0.819,3.21048,-1.6057,1.6057,88.341,0.82,3.19,-1.63,1.56
3,10,85.876,3.7831,1.196,4.68832,-2.3448,2.3448,85.862,1.198,4.68,-2.4,2.28
4,10,89.034,2.11101,0.668,2.61856,-1.3084,1.3084,89.034,0.659,2.57,-1.24,1.33
5,10,86.196,4.08577,1.292,5.06464,-2.5324,2.5324,86.213,1.303,5.12,-2.67,2.46
6,10,88.499,2.42669,0.767,3.00664,-1.5041,1.5041,88.503,0.776,3.04,-1.5,1.54
7,10,87.786,1.51707,0.48,1.8816,-0.9403,0.9403,87.787,0.485,1.9,-0.93,0.97
8,10,88.253,3.11827,0.986,3.86512,-1.9327,1.9327,88.256,0.981,3.84,-2.05,1.78
9,10,88.789,2.40268,0.76,2.9792,-1.4892,1.4892,88.791,0.76,2.96,-1.54,1.42
10,10,89.492,2.26164,0.715,2.8028,-1.4018,1.4018,89.497,0.711,2.78,-1.37,1.41
11,10,87.971,3.15835,0.999,3.91608,-1.9576,1.9576,87.984,0.992,3.84,-1.93,1.9
12,10,85.765,5.73001,1.812,7.10304,-3.5515,3.5515,85.757,1.813,7.08,-3.85,3.22
13,10,89.012,2.74767,0.869,3.40648,-1.703,1.703,89.008,0.876,3.41,-1.78,1.62
14,10,87.785,2.12332,0.671,2.63032,-1.316,1.316,87.773,0.677,2.63,-1.29,1.33
15,10,88.696,2.72958,0.863,3.38296,-1.6918,1.6918,88.703,0.863,3.35,-1.72,1.64
16,10,88.747,2.65491,0.84,3.2928,-1.6455,1.6455,88.747,0.838,3.25,-1.7,1.56
17,10,88.521,1.91309,0.605,2.3716,-1.1857,1.1857,88.518,0.602,2.37,-1.16,1.2
18,10,86.878,3.28072,1.037,4.06504,-2.0334,2.0334,86.885,1.035,4.01,-2.19,1.83
19,10,89.144,2.25389,0.713,2.79496,-1.397,1.397,89.157,0.713,2.77,-1.41,1.36
20,10,87.348,3.50153,1.107,4.33944,-2.1703,2.1703,87.334,1.095,4.29,-2.38,1.91
21,10,88.16,2.16013,0.683,2.67736,-1.3389,1.3389,88.159,0.685,2.68,-1.4,1.28
22,10,88.751,2.15888,0.683,2.67736,-1.3381,1.3381,88.745,0.686,2.68,-1.42,1.25
23,10,87.693,3.85382,1.219,4.77848,-2.3886,2.3886,87.697,1.21,4.71,-2.58,2.13
24,10,88.143,2.61798,0.828,3.24576,-1.6226,1.6226,88.148,0.824,3.17,-1.61,1.56
25,10,87.674,1.5619,0.494,1.93648,-0.9681,0.9681,87.675,0.5,1.96,-0.93,1.03
26,10,86.026,4.34992,1.376,5.39392,-2.6961,2.6961,86.026,1.368,5.3,-2.83,2.47
27,10,88.69,2.20285,0.697,2.73224,-1.3653,1.3653,88.685,0.7,2.75,-1.37,1.38
28,10,89.207,1.7686,0.559,2.19128,-1.0962,1.0962,89.204,0.56,2.19,-1.1,1.09
29,10,88.053,2.63663,0.834,3.26928,-1.6342,1.6342,88.039,0.836,3.28,-1.73,1.55
30,10,88.196,2.18209,0.69,2.7048,-1.3525,1.3525,88.201,0.691,2.69,-1.31,1.38
31,10,87.841,2.97581,0.941,3.68872,-1.8444,1.8444,87.851,0.94,3.65,-1.92,1.73
32,10,87.912,2.79748,0.885,3.4692,-1.7339,1.7339,87.922,0.885,3.46,-1.76,1.69
33,10,88.06,2.6295,0.832,3.26144,-1.6298,1.6298,88.064,0.831,3.26,-1.68,1.58
34,10,87.241,3.72874,1.179,4.62168,-2.3111,2.3111,87.236,1.183,4.6,-2.47,2.14
35,10,88.17,2.93037,0.927,3.63384,-1.8163,1.8163,88.176,0.929,3.61,-1.81,1.8
36,10,89.175,2.439,0.771,3.02232,-1.5117,1.5117,89.172,0.771,3.04,-1.57,1.46
37,10,88.332,3.88388,1.228,4.81376,-2.4073,2.4073,88.343,1.222,4.77,-2.61,2.16
38,10,87.086,1.1243,0.356,1.39552,-0.6968,0.6968,87.085,0.359,1.4,-0.67,0.73
39,10,89.005,2.2373,0.707,2.77144,-1.3867,1.3867,89.013,0.705,2.72,-1.45,1.27
40,10,88.161,2.72552,0.862,3.37904,-1.6893,1.6893,88.167,0.855,3.34,-1.63,1.71
41,10,88.813,3.12319,0.988,3.87296,-1.9358,1.9358,88.818,0.988,3.84,-1.94,1.9
42,10,88.097,1.66912,0.528,2.06976,-1.0345,1.0345,88.096,0.528,2.07,-1.03,1.05
43,10,88.07,4.32858,1.369,5.36648,-2.6829,2.6829,88.083,1.379,5.4,-2.87,2.53
44,10,87.402,4.1888,1.325,5.194,-2.5962,2.5962,87.4,1.336,5.22,-2.77,2.45
45,10,88.49,2.58118,0.816,3.19872,-1.5998,1.5998,88.492,0.818,3.19,-1.66,1.53
46,10,88.488,1.24065,0.392,1.53664,-0.769,0.769,88.489,0.396,1.57,-0.8,0.76
47,10,89.691,1.4693,0.465,1.8228,-0.9107,0.9107,89.689,0.468,1.82,-0.9,0.92
48,10,89.296,1.78298,0.564,2.21088,-1.1051,1.1051,89.303,0.562,2.19,-1.14,1.05
49,10,89.29,1.91611,0.606,2.37552,-1.1876,1.1876,89.287,0.608,2.37,-1.26,1.11
50,10,88.708,2.6181,0.828,3.24576,-1.6227,1.6227,88.702,0.824,3.22,-1.62,1.6
51,10,88.432,2.93823,0.929,3.64168,-1.8211,1.8211,88.429,0.931,3.61,-1.77,1.84
52,10,87.676,1.8125,0.573,2.24616,-1.1234,1.1234,87.678,0.572,2.22,-1.06,1.16
53,10,88.642,2.77988,0.879,3.44568,-1.723,1.723,88.633,0.879,3.4,-1.78,1.63
54,10,88.984,2.61438,0.827,3.24184,-1.6204,1.6204,88.985,0.819,3.22,-1.67,1.55
55,10,88.805,2.55504,0.808,3.16736,-1.5836,1.5836,88.813,0.802,3.13,-1.65,1.48
56,10,88.611,1.31522,0.416,1.63072,-0.8152,0.8152,88.608,0.415,1.63,-0.78,0.85
57,10,89.147,1.72272,0.545,2.1364,-1.0678,1.0678,89.147,0.546,2.13,-1.01,1.11
58,10,89.433,2.38166,0.753,2.95176,-1.4762,1.4762,89.425,0.753,2.95,-1.61,1.33
59,10,88.026,1.4966,0.473,1.85416,-0.9276,0.9276,88.025,0.47,1.83,-0.92,0.91
60,10,88.434,2.84499,0.9,3.528,-1.7633,1.7633,88.43,0.901,3.51,-1.82,1.69
61,10,89.788,1.99165,0.63,2.4696,-1.2344,1.2344,89.783,0.631,2.46,-1.28,1.18
62,10,89.327,1.98656,0.628,2.46176,-1.2313,1.2313,89.327,0.627,2.45,-1.29,1.16
63,10,89.559,1.73827,0.55,2.156,-1.0774,1.0774,89.562,0.552,2.14,-1.03,1.11
64,10,88.872,1.38907,0.439,1.72088,-0.861,0.861,88.876,0.442,1.72,-0.84,0.88
65,10,89.932,1.7344,0.548,2.14816,-1.075,1.075,89.933,0.546,2.1,-1.18,0.92
66,10,88.487,3.24446,1.026,4.02192,-2.0109,2.0109,88.516,1.023,4.0,-2.04,1.95
67,10,89.434,1.6442,0.52,2.0384,-1.0191,1.0191,89.432,0.521,2.04,-1.02,1.01
68,10,88.91,1.92755,0.61,2.3912,-1.1947,1.1947,88.915,0.606,2.33,-1.27,1.07
69,10,87.903,2.65274,0.839,3.28888,-1.6442,1.6442,87.897,0.841,3.27,-1.65,1.62
70,10,87.176,5.74375,1.816,7.11872,-3.56,3.56,87.152,1.832,6.97,-3.99,2.98
71,10,89.036,2.32175,0.734,2.87728,-1.439,1.439,89.026,0.733,2.86,-1.51,1.35
72,10,87.27,3.84081,1.215,4.7628,-2.3806,2.3806,87.291,1.205,4.71,-2.59,2.11
73,10,87.391,5.59822,1.77,6.9384,-3.4698,3.4698,87.411,1.751,6.59,-3.88,2.71
74,10,87.989,2.50653,0.793,3.10856,-1.5536,1.5536,87.997,0.79,3.09,-1.6,1.48
75,10,89.916,1.83551,0.58,2.2736,-1.1377,1.1377,89.911,0.585,2.28,-1.17,1.11
76,10,89.979,1.24052,0.392,1.53664,-0.7689,0.7689,89.981,0.391,1.55,-0.76,0.79
77,10,88.709,2.91452,0.922,3.61424,-1.8064,1.8064,88.728,0.914,3.57,-1.92,1.65
78,10,88.688,2.49708,0.79,3.0968,-1.5477,1.5477,88.689,0.789,3.09,-1.62,1.47
79,10,88.227,3.41132,1.079,4.22968,-2.1144,2.1144,88.236,1.082,4.23,-2.15,2.08
80,10,87.143,3.84763,1.217,4.77064,-2.3848,2.3848,87.155,1.206,4.68,-2.42,2.25
81,10,89.052,2.81899,0.891,3.49272,-1.7472,1.7472,89.057,0.892,3.46,-1.91,1.54
82,10,87.953,2.32454,0.735,2.8812,-1.4408,1.4408,87.96,0.744,2.89,-1.41,1.48
83,10,88.329,3.56275,1.127,4.41784,-2.2082,2.2082,88.323,1.114,4.3,-2.41,1.89
84,10,89.742,1.08753,0.344,1.34848,-0.6741,0.6741,89.743,0.348,1.35,-0.72,0.63
85,10,87.853,3.12866,0.989,3.87688,-1.9392,1.9392,87.865,0.988,3.84,-1.98,1.86
86,10,88.782,2.41773,0.765,2.9988,-1.4985,1.4985,88.769,0.769,2.98,-1.58,1.4
87,10,88.445,3.19553,1.011,3.96312,-1.9806,1.9806,88.457,1.013,3.93,-2.11,1.82
88,10,88.75,3.04373,0.963,3.77496,-1.8865,1.8865,88.75,0.97,3.73,-1.99,1.74
89,10,88.551,3.1142,0.985,3.8612,-1.9302,1.9302,88.541,0.996,3.91,-1.98,1.93
90,10,88.869,2.44277,0.772,3.02624,-1.514,1.514,88.87,0.768,2.96,-1.59,1.37
91,10,86.899,3.43751,1.087,4.26104,-2.1306,2.1306,86.9,1.085,4.25,-2.15,2.1
92,10,87.651,2.83497,0.896,3.51232,-1.7571,1.7571,87.65,0.9,3.52,-1.86,1.66
93,10,89.024,3.10064,0.981,3.84552,-1.9218,1.9218,89.015,0.987,3.83,-1.96,1.87
94,10,86.759,5.51226,1.743,6.83256,-3.4165,3.4165,86.73,1.744,6.72,-3.87,2.85
95,10,89.126,4.21762,1.334,5.22928,-2.6141,2.6141,89.129,1.318,5.15,-2.96,2.19
96,10,87.854,3.38187,1.069,4.19048,-2.0961,2.0961,87.854,1.065,4.14,-2.08,2.05
97,10,87.608,3.82051,1.208,4.73536,-2.368,2.368,87.626,1.204,4.66,-2.55,2.11
98,10,87.27,5.35155,1.692,6.63264,-3.3169,3.3169,87.257,1.656,6.11,-3.7,2.41
99,10,88.38,2.87973,0.911,3.57112,-1.7849,1.7849,88.382,0.906,3.52,-1.76,1.76
100,20,88.4245,2.48575,0.556,2.17952,-1.0894,1.0894,88.425,0.56,2.18,-1.13,1.06
101,20,88.3195,4.23821,0.948,3.71616,-1.8575,1.8575,88.319,0.948,3.61,-2.1,1.51
102,20,87.998,2.61447,0.585,2.2932,-1.1458,1.1458,88.004,0.582,2.3,-1.15,1.15
103,20,87.677,4.34927,0.973,3.81416,-1.9061,1.9061,87.685,0.975,3.8,-2.17,1.63
104,20,88.8305,2.60483,0.582,2.28144,-1.1416,1.1416,88.829,0.585,2.28,-1.16,1.12
105,20,87.6125,4.65753,1.041,4.08072,-2.0413,2.0413,87.624,1.039,4.04,-2.27,1.77
106,20,87.996,3.15999,0.707,2.77144,-1.3849,1.3849,87.991,0.707,2.75,-1.44,1.31
107,20,87.9935,3.66937,0.82,3.2144,-1.6082,1.6082,88.003,0.824,3.24,-1.69,1.54
108,20,88.4925,2.24574,0.502,1.96784,-0.9842,0.9842,88.491,0.503,1.97,-0.97,1.0
109,20,87.1615,2.77498,0.621,2.43432,-1.2162,1.2162,87.16,0.624,2.43,-1.23,1.2
110,20,88.623,2.38902,0.534,2.09328,-1.047,1.047,88.625,0.539,2.09,-1.1,0.99
111,20,89.0575,3.15827,0.706,2.76752,-1.3842,1.3842,89.047,0.712,2.77,-1.55,1.23
112,20,88.324,1.98455,0.444,1.74048,-0.8698,0.8698,88.325,0.445,1.71,-0.89,0.83
113,20,87.8855,3.61249,0.808,3.16736,-1.5832,1.5832,87.882,0.809,3.15,-1.65,1.5
114,20,88.5125,2.52529,0.565,2.2148,-1.1068,1.1068,88.512,0.566,2.21,-1.11,1.1
115,20,88.27,2.59651,0.581,2.27752,-1.138,1.138,88.269,0.585,2.29,-1.17,1.12
116,20,87.2895,4.44287,0.993,3.89256,-1.9472,1.9472,87.294,0.988,3.86,-2.14,1.72
117,20,88.402,2.84264,0.636,2.49312,-1.2458,1.2458,88.404,0.635,2.49,-1.25,1.24
118,20,86.8645,4.67008,1.044,4.09248,-2.0468,2.0468,86.865,1.046,4.04,-2.22,1.83
119,20,88.781,3.06324,0.685,2.6852,-1.3425,1.3425,88.777,0.685,2.66,-1.49,1.18
120,20,88.4835,2.32189,0.519,2.03448,-1.0176,1.0176,88.489,0.521,2.05,-1.05,1.0
121,20,87.749,4.80457,1.074,4.21008,-2.1057,2.1057,87.733,1.083,4.22,-2.33,1.88
122,20,88.187,3.50805,0.784,3.07328,-1.5375,1.5375,88.19,0.772,3.02,-1.61,1.41
123,20,87.487,3.28815,0.735,2.8812,-1.4411,1.4411,87.481,0.738,2.87,-1.49,1.39
124,20,88.3575,2.28931,0.512,2.00704,-1.0033,1.0033,88.352,0.508,1.98,-1.01,0.98
125,20,87.8175,4.09113,0.915,3.5868,-1.793,1.793,87.819,0.92,3.52,-2.09,1.43
126,20,89.4955,2.47042,0.552,2.16384,-1.0827,1.0827,89.504,0.56,2.18,-1.13,1.04
127,20,88.2675,2.57673,0.576,2.25792,-1.1293,1.1293,88.27,0.577,2.26,-1.15,1.11
128,20,87.1985,2.69911,0.604,2.36768,-1.1829,1.1829,87.206,0.603,2.36,-1.19,1.18
129,20,88.512,2.52808,0.565,2.2148,-1.108,1.108,88.51,0.566,2.2,-1.12,1.08
130,20,88.3205,2.67358,0.598,2.34416,-1.1717,1.1717,88.324,0.598,2.34,-1.16,1.17
131,20,87.764,3.47223,0.776,3.04192,-1.5218,1.5218,87.754,0.775,3.02,-1.59,1.43
132,20,88.014,4.35379,0.974,3.81808,-1.9081,1.9081,88.007,0.99,3.79,-2.17,1.62
133,20,88.482,2.78739,0.623,2.44216,-1.2216,1.2216,88.484,0.621,2.43,-1.25,1.19
134,20,87.2885,3.45971,0.774,3.03408,-1.5163,1.5163,87.282,0.774,3.03,-1.56,1.47
135,20,88.7855,3.84304,0.859,3.36728,-1.6843,1.6843,88.787,0.851,3.32,-1.74,1.59
136,20,88.1975,2.42733,0.543,2.12856,-1.0638,1.0638,88.196,0.54,2.13,-1.06,1.06
137,20,87.863,2.75061,0.615,2.4108,-1.2055,1.2055,87.863,0.615,2.42,-1.18,1.23
138,20,86.9995,3.18045,0.711,2.78712,-1.3939,1.3939,86.987,0.708,2.78,-1.43,1.35
139,20,88.4675,2.38581,0.533,2.08936,-1.0456,1.0456,88.476,0.532,2.07,-1.05,1.01
140,20,87.3365,4.47698,1.001,3.92392,-1.9621,1.9621,87.327,1.008,3.93,-2.19,1.74
141,20,88.9685,2.61182,0.584,2.28928,-1.1447,1.1447,88.975,0.577,2.26,-1.19,1.06
142,20,86.792,4.60026,1.029,4.03368,-2.0162,2.0162,86.786,1.041,4.06,-2.21,1.85
143,20,88.2585,2.15212,0.481,1.88552,-0.9432,0.9432,88.26,0.485,1.91,-0.96,0.95
144,20,89.0535,2.15183,0.481,1.88552,-0.9431,0.9431,89.051,0.478,1.86,-0.97,0.89
145,20,87.932,3.33691,0.746,2.92432,-1.4625,1.4625,87.922,0.744,2.9,-1.55,1.35
146,20,87.3745,2.76136,0.617,2.41864,-1.2102,1.2102,87.382,0.62,2.43,-1.25,1.18
147,20,88.677,2.0722,0.463,1.81496,-0.9082,0.9082,88.678,0.464,1.8,-0.91,0.9
148,20,88.104,2.52957,0.566,2.21872,-1.1086,1.1086,88.11,0.566,2.23,-1.14,1.09
149,20,88.5215,2.36527,0.529,2.07368,-1.0366,1.0366,88.523,0.53,2.08,-1.06,1.03
150,20,87.7835,2.68355,0.6,2.352,-1.1761,1.1761,87.782,0.602,2.33,-1.18,1.15
151,20,88.4985,2.24585,0.502,1.96784,-0.9843,0.9843,88.499,0.499,1.96,-1.01,0.96
152,20,87.681,2.30721,0.516,2.02272,-1.0112,1.0112,87.689,0.514,2.01,-1.03,0.99
153,20,89.031,2.53179,0.566,2.21872,-1.1096,1.1096,89.04,0.564,2.19,-1.11,1.08
154,20,88.3765,2.70616,0.605,2.3716,-1.186,1.186,88.371,0.607,2.38,-1.24,1.14
155,20,88.5515,4.62673,1.035,4.0572,-2.0278,2.0278,88.543,1.029,3.99,-2.25,1.74
156,20,89.635,1.8863,0.422,1.65424,-0.8267,0.8267,89.633,0.419,1.65,-0.83,0.82
157,20,88.4215,3.00764,0.673,2.63816,-1.3182,1.3182,88.417,0.674,2.64,-1.42,1.22
158,20,87.975,2.95048,0.66,2.5872,-1.2931,1.2931,87.983,0.662,2.6,-1.39,1.2
159,20,88.4545,2.26733,0.507,1.98744,-0.9937,0.9937,88.447,0.514,2.0,-1.02,0.98
160,20,89.0795,2.24104,0.501,1.96392,-0.9822,0.9822,89.078,0.502,1.97,-1.01,0.96
161,20,87.3015,4.32691,0.968,3.79456,-1.8964,1.8964,87.313,0.961,3.71,-2.07,1.63
162,20,88.5165,3.31712,0.742,2.90864,-1.4538,1.4538,88.522,0.74,2.89,-1.54,1.35
163,20,86.076,4.36429,0.976,3.82592,-1.9127,1.9127,86.075,0.977,3.78,-2.09,1.7
164,20,88.2215,2.71225,0.606,2.37552,-1.1887,1.1887,88.222,0.61,2.38,-1.23,1.15
165,20,88.5785,2.56729,0.574,2.25008,-1.1252,1.1252,88.582,0.577,2.25,-1.16,1.09
166,20,88.1745,2.98915,0.668,2.61856,-1.3101,1.3101,88.174,0.674,2.62,-1.42,1.21
167,20,88.604,2.92132,0.653,2.55976,-1.2803,1.2803,88.595,0.657,2.57,-1.33,1.23
168,20,87.9515,2.06363,0.461,1.80712,-0.9044,0.9044,87.954,0.457,1.78,-0.88,0.9
169,20,88.1325,2.88696,0.646,2.53232,-1.2653,1.2653,88.141,0.648,2.54,-1.37,1.17
170,20,89.252,1.9883,0.445,1.7444,-0.8714,0.8714,89.254,0.44,1.71,-0.89,0.82
171,20,88.354,2.02706,0.453,1.77576,-0.8884,0.8884,88.352,0.45,1.76,-0.89,0.88
172,20,88.4785,2.47129,0.553,2.16776,-1.0831,1.0831,88.476,0.548,2.14,-1.08,1.07
173,20,88.1775,2.42287,0.542,2.12464,-1.0619,1.0619,88.179,0.539,2.11,-1.08,1.03
174,20,87.95,4.36075,0.975,3.822,-1.9112,1.9112,87.951,0.98,3.8,-2.16,1.64
175,20,88.466,2.31361,0.517,2.02664,-1.014,1.014,88.467,0.515,2.02,-1.04,0.98
176,20,88.6295,3.2354,0.723,2.83416,-1.418,1.418,88.628,0.734,2.9,-1.56,1.33
177,20,88.4165,2.69493,0.603,2.36376,-1.1811,1.1811,88.421,0.6,2.35,-1.2,1.15
178,20,87.3505,3.60433,0.806,3.15952,-1.5797,1.5797,87.357,0.806,3.17,-1.69,1.48
179,20,87.8095,3.25881,0.729,2.85768,-1.4282,1.4282,87.809,0.724,2.83,-1.44,1.39
180,20,87.8755,4.4968,1.006,3.94352,-1.9708,1.9708,87.885,1.006,3.88,-2.2,1.69
181,20,89.1295,2.39285,0.535,2.0972,-1.0487,1.0487,89.127,0.532,2.07,-1.05,1.02
182,20,88.7175,2.52321,0.564,2.21088,-1.1058,1.1058,88.717,0.565,2.2,-1.12,1.08
183,20,88.433,2.43676,0.545,2.1364,-1.068,1.068,88.43,0.545,2.13,-1.09,1.04
184,20,89.206,2.32674,0.52,2.0384,-1.0197,1.0197,89.202,0.519,2.02,-1.04,0.98
185,20,86.876,4.80016,1.073,4.20616,-2.1038,2.1038,86.886,1.073,4.19,-2.29,1.9
186,20,87.5935,3.60165,0.805,3.1556,-1.5785,1.5785,87.592,0.812,3.16,-1.65,1.51
187,20,88.415,4.35636,0.974,3.81808,-1.9093,1.9093,88.432,0.963,3.73,-2.17,1.55
188,20,87.714,3.60034,0.805,3.1556,-1.5779,1.5779,87.722,0.803,3.14,-1.63,1.51
189,20,88.0025,4.43241,0.991,3.88472,-1.9426,1.9426,88.0,0.988,3.81,-2.15,1.66
190,20,88.81,2.72765,0.61,2.3912,-1.1954,1.1954,88.813,0.611,2.4,-1.25,1.15
191,20,88.77,3.52664,0.789,3.09288,-1.5456,1.5456,88.772,0.786,3.05,-1.64,1.41
192,20,88.3505,2.74029,0.613,2.40296,-1.201,1.201,88.345,0.612,2.4,-1.25,1.15
193,20,88.347,2.68493,0.6,2.352,-1.1767,1.1767,88.354,0.603,2.34,-1.2,1.15
194,20,89.3085,2.50803,0.561,2.19912,-1.0992,1.0992,89.306,0.563,2.2,-1.14,1.07
195,20,88.4845,2.20588,0.493,1.93256,-0.9668,0.9668,88.484,0.502,1.97,-1.0,0.97
196,20,86.9765,5.07725,1.135,4.4492,-2.2252,2.2252,86.986,1.129,4.42,-2.4,2.02
197,20,87.195,4.92354,1.101,4.31592,-2.1578,2.1578,87.195,1.095,4.26,-2.3,1.95
198,20,88.4525,2.68312,0.6,2.352,-1.1759,1.1759,88.45,0.599,2.36,-1.19,1.17
199,20,89.084,3.12159,0.698,2.73616,-1.3681,1.3681,89.087,0.695,2.73,-1.5,1.22
200,30,88.2643,2.96238,0.541,2.12072,-1.0601,1.0601,88.265,0.54,2.11,-1.1,1.01
201,30,88.091,3.13589,0.573,2.24616,-1.1222,1.1222,88.084,0.575,2.28,-1.18,1.09
202,30,87.205,4.14218,0.756,2.96352,-1.4823,1.4823,87.211,0.757,2.97,-1.61,1.36
203,30,88.7527,4.02754,0.735,2.8812,-1.4412,1.4412,88.755,0.737,2.84,-1.58,1.27
204,30,87.6947,3.33224,0.608,2.38336,-1.1924,1.1924,87.687,0.611,2.41,-1.24,1.17
205,30,88.3057,3.75356,0.685,2.6852,-1.3432,1.3432,88.311,0.686,2.66,-1.51,1.15
206,30,88.215,3.82753,0.699,2.74008,-1.3697,1.3697,88.214,0.703,2.76,-1.56,1.2
207,30,87.8583,3.27105,0.597,2.34024,-1.1705,1.1705,87.849,0.602,2.37,-1.23,1.14
208,30,87.6517,4.11259,0.751,2.94392,-1.4717,1.4717,87.657,0.756,2.95,-1.61,1.34
209,30,88.694,2.55783,0.467,1.83064,-0.9153,0.9153,88.698,0.471,1.85,-0.94,0.91
210,30,88.8533,2.16112,0.395,1.5484,-0.7733,0.7733,88.853,0.399,1.57,-0.79,0.78
211,30,88.5677,3.22468,0.589,2.30888,-1.1539,1.1539,88.564,0.59,2.31,-1.21,1.1
212,30,89.065,2.324,0.424,1.66208,-0.8316,0.8316,89.074,0.423,1.66,-0.86,0.79
213,30,88.9087,2.57092,0.469,1.83848,-0.92,0.92,88.908,0.474,1.85,-0.94,0.91
214,30,88.1613,4.52231,0.826,3.23792,-1.6183,1.6183,88.15,0.82,3.19,-1.73,1.46
215,30,87.6383,3.76026,0.687,2.69304,-1.3456,1.3456,87.648,0.692,2.7,-1.5,1.2
216,30,88.3087,2.66881,0.487,1.90904,-0.955,0.955,88.307,0.487,1.91,-0.98,0.93
217,30,89.0923,2.13396,0.39,1.5288,-0.7636,0.7636,89.095,0.387,1.51,-0.77,0.74
218,30,88.026,2.70613,0.494,1.93648,-0.9684,0.9684,88.027,0.494,1.91,-0.97,0.94
219,30,88.8547,2.81602,0.514,2.01488,-1.0077,1.0077,88.864,0.513,2.03,-1.05,0.98
220,30,88.1343,3.54865,0.648,2.54016,-1.2699,1.2699,88.126,0.651,2.52,-1.32,1.19
221,30,87.8007,3.58974,0.655,2.5676,-1.2846,1.2846,87.802,0.658,2.56,-1.34,1.22
222,30,88.0273,3.55562,0.649,2.54408,-1.2724,1.2724,88.029,0.655,2.57,-1.36,1.21
223,30,88.213,2.00202,0.366,1.43472,-0.7164,0.7164,88.214,0.367,1.43,-0.71,0.72
224,30,88.2817,2.99902,0.548,2.14816,-1.0732,1.0732,88.274,0.549,2.15,-1.13,1.03
225,30,87.4647,3.52614,0.644,2.52448,-1.2618,1.2618,87.467,0.647,2.54,-1.32,1.22
226,30,87.3647,4.07277,0.744,2.91648,-1.4574,1.4574,87.359,0.745,2.89,-1.56,1.33
227,30,88.496,2.58913,0.473,1.85416,-0.9265,0.9265,88.487,0.469,1.83,-0.93,0.9
228,30,87.5703,4.55415,0.831,3.25752,-1.6297,1.6297,87.568,0.825,3.24,-1.74,1.5
229,30,87.1557,3.90126,0.712,2.79104,-1.396,1.396,87.155,0.712,2.8,-1.52,1.28
230,30,88.092,2.78772,0.509,1.99528,-0.9976,0.9976,88.103,0.509,1.98,-1.01,0.97
231,30,88.2093,3.16917,0.579,2.26968,-1.1341,1.1341,88.211,0.581,2.26,-1.17,1.09
232,30,87.9473,3.90834,0.714,2.79888,-1.3986,1.3986,87.951,0.707,2.78,-1.53,1.25
233,30,87.9913,4.34931,0.794,3.11248,-1.5564,1.5564,87.988,0.795,3.07,-1.67,1.41
234,30,87.7833,3.46469,0.633,2.48136,-1.2398,1.2398,87.78,0.634,2.47,-1.29,1.18
235,30,87.869,2.83444,0.517,2.02664,-1.0143,1.0143,87.866,0.519,2.04,-1.06,0.97
236,30,88.9317,2.60758,0.476,1.86592,-0.9331,0.9331,88.933,0.48,1.88,-0.97,0.92
237,30,88.734,2.21117,0.404,1.58368,-0.7913,0.7913,88.736,0.403,1.58,-0.79,0.79
238,30,88.0643,2.29266,0.419,1.64248,-0.8204,0.8204,88.06,0.421,1.65,-0.83,0.82
239,30,87.4063,4.14388,0.757,2.96744,-1.4829,1.4829,87.401,0.752,2.95,-1.6,1.35
240,30,88.4407,3.21686,0.587,2.30104,-1.1511,1.1511,88.437,0.591,2.34,-1.24,1.1
241,30,87.198,3.58033,0.654,2.56368,-1.2812,1.2812,87.199,0.651,2.55,-1.32,1.23
242,30,88.994,3.18986,0.582,2.28144,-1.1415,1.1415,88.987,0.577,2.27,-1.18,1.09
243,30,88.201,2.65492,0.485,1.9012,-0.9501,0.9501,88.203,0.487,1.89,-0.98,0.91
244,30,88.295,3.93944,0.719,2.81848,-1.4097,1.4097,88.301,0.719,2.79,-1.55,1.24
245,30,86.9067,4.27465,0.78,3.0576,-1.5297,1.5297,86.904,0.779,3.04,-1.62,1.42
246,30,87.9277,4.19621,0.766,3.00272,-1.5016,1.5016,87.928,0.765,3.0,-1.67,1.33
247,30,87.3907,4.42541,0.808,3.16736,-1.5836,1.5836,87.387,0.803,3.13,-1.7,1.43
248,30,87.919,3.28495,0.6,2.352,-1.1755,1.1755,87.912,0.608,2.39,-1.24,1.15
249,30,88.759,2.4036,0.439,1.72088,-0.8601,0.8601,88.757,0.436,1.71,-0.88,0.83
250,30,87.464,4.22751,0.772,3.02624,-1.5128,1.5128,87.462,0.772,3.01,-1.62,1.39
251,30,88.5507,2.59162,0.473,1.85416,-0.9274,0.9274,88.551,0.473,1.84,-0.92,0.92
252,30,87.9317,2.56154,0.468,1.83456,-0.9166,0.9166,87.939,0.467,1.82,-0.91,0.91
253,30,88.7677,2.6975,0.492,1.92864,-0.9653,0.9653,88.765,0.491,1.92,-0.97,0.94
254,30,87.8053,3.59993,0.657,2.57544,-1.2882,1.2882,87.81,0.659,2.55,-1.44,1.11
255,30,88.6033,2.90228,0.53,2.0776,-1.0386,1.0386,88.605,0.524,2.07,-1.05,1.01
256,30,88.1507,2.97006,0.542,2.12464,-1.0628,1.0628,88.157,0.539,2.12,-1.1,1.01
257,30,88.1343,2.96527,0.541,2.12072,-1.0611,1.0611,88.131,0.544,2.14,-1.13,1.0
258,30,87.4287,4.41973,0.807,3.16344,-1.5816,1.5816,87.438,0.803,3.14,-1.7,1.44
259,30,87.5287,3.9678,0.724,2.83808,-1.4199,1.4199,87.541,0.721,2.82,-1.53,1.29
260,30,87.6787,4.26974,0.78,3.0576,-1.5279,1.5279,87.686,0.778,3.05,-1.66,1.39
261,30,88.5223,3.39493,0.62,2.4304,-1.2149,1.2149,88.522,0.622,2.44,-1.27,1.17
262,30,87.3003,4.39576,0.803,3.14776,-1.573,1.573,87.302,0.793,3.11,-1.65,1.45
263,30,88.8607,2.39742,0.438,1.71696,-0.8579,0.8579,88.868,0.442,1.72,-0.86,0.86
264,30,87.341,3.84797,0.703,2.75576,-1.377,1.377,87.341,0.697,2.73,-1.49,1.23
265,30,88.0367,3.95162,0.721,2.82632,-1.4141,1.4141,88.035,0.723,2.81,-1.56,1.26
266,30,87.1937,4.1824,0.764,2.99488,-1.4967,1.4967,87.19,0.765,3.01,-1.63,1.38
267,30,88.612,2.38489,0.435,1.7052,-0.8534,0.8534,88.614,0.438,1.71,-0.86,0.85
268,30,88.856,2.02142,0.369,1.44648,-0.7234,0.7234,88.855,0.372,1.46,-0.72,0.73
269,30,87.786,4.04541,0.739,2.89688,-1.4476,1.4476,87.796,0.728,2.82,-1.52,1.29
270,30,88.666,2.1642,0.395,1.5484,-0.7744,0.7744,88.666,0.395,1.56,-0.79,0.78
271,30,86.5527,4.17777,0.763,2.99096,-1.495,1.495,86.559,0.766,2.99,-1.63,1.37
272,30,88.5353,3.00062,0.548,2.14816,-1.0738,1.0738,88.54,0.548,2.14,-1.13,1.01
273,30,86.6407,4.5091,0.823,3.22616,-1.6136,1.6136,86.638,0.83,3.26,-1.75,1.51
274,30,88.4177,3.14688,0.575,2.254,-1.1261,1.1261,88.42,0.575,2.26,-1.18,1.08
275,30,87.6367,3.82804,0.699,2.74008,-1.3698,1.3698,87.64,0.697,2.71,-1.47,1.24
276,30,88.7137,3.2981,0.602,2.35984,-1.1802,1.1802,88.715,0.6,2.34,-1.23,1.11
277,30,89.0683,1.92905,0.352,1.37984,-0.6903,0.6903,89.07,0.354,1.39,-0.7,0.69
278,30,87.9287,3.29446,0.601,2.35592,-1.1789,1.1789,87.93,0.602,2.36,-1.21,1.15
279,30,87.9437,3.76139,0.687,2.69304,-1.346,1.346,87.928,0.694,2.69,-1.5,1.19
280,30,87.265,4.22409,0.771,3.02232,-1.5116,1.5116,87.264,0.774,3.01,-1.64,1.38
281,30,89.4567,2.58314,0.472,1.85024,-0.9244,0.9244,89.461,0.477,1.87,-0.98,0.88
282,30,88.2343,3.08545,0.563,2.20696,-1.1041,1.1041,88.236,0.562,2.2,-1.15,1.05
283,30,88.0117,3.53673,0.646,2.53232,-1.2656,1.2656,88.019,0.644,2.52,-1.31,1.22
284,30,88.955,2.52961,0.462,1.81104,-0.9052,0.9052,88.956,0.463,1.81,-0.93,0.88
285,30,88.346,3.87287,0.707,2.77144,-1.3859,1.3859,88.353,0.706,2.75,-1.54,1.22
286,30,88.364,4.00661,0.732,2.86944,-1.4337,1.4337,88.373,0.734,2.84,-1.57,1.27
287,30,88.2837,2.60554,0.476,1.86592,-0.9324,0.9324,88.287,0.472,1.83,-0.93,0.91
288,30,87.8523,2.62869,0.48,1.8816,-0.9407,0.9407,87.851,0.477,1.86,-0.94,0.92
289,30,87.6773,3.206,0.585,2.2932,-1.1473,1.1473,87.678,0.583,2.28,-1.17,1.11
290,30,88.9627,2.21993,0.405,1.5876,-0.7944,0.7944,88.964,0.403,1.58,-0.8,0.78
291,30,87.824,3.84825,0.703,2.75576,-1.3771,1.3771,87.824,0.7,2.73,-1.5,1.23
292,30,88.918,2.16642,0.396,1.55232,-0.7752,0.7752,88.922,0.395,1.55,-0.79,0.76
293,30,88.3743,3.1186,0.569,2.23048,-1.116,1.116,88.376,0.571,2.24,-1.16,1.08
294,30,87.9763,2.74152,0.501,1.96392,-0.981,0.981,87.976,0.503,1.98,-1.0,0.97
295,30,88.5353,3.2241,0.589,2.30888,-1.1537,1.1537,88.541,0.591,2.3,-1.2,1.1
296,30,88.6667,2.50032,0.456,1.78752,-0.8947,0.8947,88.667,0.458,1.81,-0.92,0.89
297,30,87.5907,4.06066,0.741,2.90472,-1.4531,1.4531,87.593,0.731,2.84,-1.57,1.26
298,30,89.024,2.53848,0.463,1.81496,-0.9084,0.9084,89.028,0.463,1.83,-0.93,0.89
299,30,87.804,3.25363,0.594,2.32848,-1.1643,1.1643,87.804,0.591,2.34,-1.21,1.13
300,50,88.245,3.16868,0.448,1.75616,-0.8783,0.8783,88.243,0.453,1.77,-0.92,0.85
301,50,88.2758,2.83584,0.401,1.57192,-0.7861,0.7861,88.278,0.399,1.56,-0.81,0.75
302,50,88.2768,3.48328,0.493,1.93256,-0.9655,0.9655,88.271,0.488,1.9,-1.01,0.89
303,50,88.3124,2.57821,0.365,1.4308,-0.7146,0.7146,88.307,0.362,1.42,-0.7,0.71
304,50,88.296,2.52853,0.358,1.40336,-0.7009,0.7009,88.297,0.358,1.41,-0.72,0.69
305,50,88.2808,3.10633,0.439,1.72088,-0.861,0.861,88.277,0.436,1.71,-0.87,0.84
306,50,87.9028,3.64573,0.516,2.02272,-1.0105,1.0105,87.906,0.516,2.0,-1.06,0.95
307,50,88.4916,2.57316,0.364,1.42688,-0.7132,0.7132,88.495,0.365,1.44,-0.73,0.7
308,50,88.4476,2.89034,0.409,1.60328,-0.8012,0.8012,88.451,0.408,1.6,-0.83,0.77
309,50,87.9432,3.46906,0.491,1.92472,-0.9616,0.9616,87.945,0.492,1.93,-1.04,0.89
310,50,87.6776,3.60028,0.509,1.99528,-0.9979,0.9979,87.68,0.504,1.97,-1.05,0.92
311,50,89.0662,2.84663,0.403,1.57976,-0.789,0.789,89.068,0.4,1.57,-0.82,0.75
312,50,87.9246,3.54858,0.502,1.96784,-0.9836,0.9836,87.929,0.507,1.99,-1.06,0.93
313,50,88.1344,2.76179,0.391,1.53272,-0.7655,0.7655,88.129,0.389,1.51,-0.78,0.74
314,50,87.8796,3.74124,0.529,2.07368,-1.037,1.037,87.884,0.521,2.03,-1.08,0.95
315,50,88.4156,3.02022,0.427,1.67384,-0.8372,0.8372,88.417,0.426,1.66,-0.85,0.8
316,50,88.0112,2.65064,0.375,1.47,-0.7347,0.7347,88.017,0.373,1.46,-0.75,0.71
317,50,88.2254,2.98168,0.422,1.65424,-0.8265,0.8265,88.226,0.421,1.65,-0.85,0.8
318,50,88.7442,2.59613,0.367,1.43864,-0.7196,0.7196,88.745,0.367,1.43,-0.73,0.71
319,50,88.151,3.26519,0.462,1.81104,-0.9051,0.9051,88.154,0.461,1.79,-0.98,0.81
320,50,88.4408,2.91507,0.412,1.61504,-0.808,0.808,88.44,0.407,1.6,-0.8,0.8
321,50,88.3016,3.48603,0.493,1.93256,-0.9663,0.9663,88.304,0.494,1.95,-1.06,0.89
322,50,88.3958,2.69176,0.381,1.49352,-0.7461,0.7461,88.398,0.378,1.48,-0.75,0.72
323,50,88.3392,3.03299,0.429,1.68168,-0.8407,0.8407,88.341,0.426,1.67,-0.86,0.81
324,50,88.5346,2.90576,0.411,1.61112,-0.8054,0.8054,88.538,0.412,1.61,-0.84,0.78
325,50,87.973,3.83513,0.542,2.12464,-1.063,1.063,87.968,0.544,2.12,-1.13,1.0
326,50,88.307,3.01126,0.426,1.66992,-0.8347,0.8347,88.307,0.429,1.68,-0.87,0.81
327,50,88.3544,3.11549,0.441,1.72872,-0.8636,0.8636,88.348,0.443,1.74,-0.88,0.85
328,50,88.0738,3.78978,0.536,2.10112,-1.0505,1.0505,88.081,0.536,2.1,-1.11,0.99
329,50,88.0244,3.3248,0.47,1.8424,-0.9216,0.9216,88.021,0.467,1.82,-0.98,0.84
330,50,88.5104,2.88232,0.408,1.59936,-0.7989,0.7989,88.516,0.406,1.58,-0.82,0.76
331,50,88.0966,3.70918,0.525,2.058,-1.0281,1.0281,88.103,0.522,2.03,-1.08,0.95
332,50,88.1354,3.72413,0.527,2.06584,-1.0323,1.0323,88.136,0.527,2.05,-1.1,0.95
333,50,88.3312,3.35687,0.475,1.862,-0.9305,0.9305,88.327,0.472,1.86,-1.0,0.86
334,50,88.7022,2.71138,0.383,1.50136,-0.7516,0.7516,88.704,0.38,1.48,-0.76,0.72
335,50,88.164,3.60764,0.51,1.9992,-1.0,1.0,88.168,0.511,1.99,-1.07,0.92
336,50,88.3674,3.24541,0.459,1.79928,-0.8996,0.8996,88.366,0.461,1.82,-0.94,0.87
337,50,88.2496,3.30898,0.468,1.83456,-0.9172,0.9172,88.246,0.465,1.83,-0.93,0.89
338,50,87.9204,3.69119,0.522,2.04624,-1.0231,1.0231,87.925,0.527,2.07,-1.11,0.96
339,50,88.4296,3.03127,0.429,1.68168,-0.8402,0.8402,88.435,0.432,1.69,-0.89,0.81
340,50,88.6946,2.88421,0.408,1.59936,-0.7995,0.7995,88.697,0.411,1.6,-0.84,0.77
341,50,88.7182,2.57935,0.365,1.4308,-0.715,0.715,88.721,0.366,1.43,-0.72,0.71
342,50,88.9494,2.38706,0.338,1.32496,-0.6617,0.6617,88.95,0.337,1.32,-0.67,0.65
343,50,88.5922,2.73988,0.387,1.51704,-0.7595,0.7595,88.59,0.384,1.51,-0.79,0.72
344,50,88.367,3.02789,0.428,1.67776,-0.8393,0.8393,88.367,0.424,1.65,-0.86,0.79
345,50,88.3282,3.39255,0.48,1.8816,-0.9404,0.9404,88.329,0.484,1.89,-1.02,0.87
346,50,88.2278,2.79279,0.395,1.5484,-0.7741,0.7741,88.234,0.395,1.55,-0.8,0.75
347,50,88.4492,2.86172,0.405,1.5876,-0.7932,0.7932,88.447,0.405,1.59,-0.83,0.76
348,50,87.661,3.72617,0.527,2.06584,-1.0328,1.0328,87.663,0.532,2.08,-1.11,0.97
349,50,88.1158,2.84712,0.403,1.57976,-0.7892,0.7892,88.121,0.401,1.58,-0.81,0.77
350,50,87.9358,3.6029,0.51,1.9992,-0.9987,0.9987,87.932,0.509,1.99,-1.08,0.92
351,50,88.342,2.58655,0.366,1.43472,-0.717,0.717,88.343,0.363,1.42,-0.72,0.7
352,50,88.079,2.76671,0.391,1.53272,-0.7669,0.7669,88.079,0.391,1.53,-0.79,0.74
353,50,87.8994,4.10114,0.58,2.2736,-1.1368,1.1368,87.893,0.588,2.31,-1.2,1.1
354,50,88.096,3.78827,0.536,2.10112,-1.0501,1.0501,88.102,0.531,2.09,-1.11,0.98
355,50,88.109,3.68016,0.52,2.0384,-1.0201,1.0201,88.106,0.52,2.02,-1.08,0.95
356,50,88.044,3.06766,0.434,1.70128,-0.8503,0.8503,88.045,0.438,1.72,-0.9,0.82
357,50,87.878,3.7532,0.531,2.08152,-1.0403,1.0403,87.874,0.53,2.08,-1.11,0.98
358,50,88.7152,2.59149,0.366,1.43472,-0.7183,0.7183,88.714,0.364,1.43,-0.74,0.69
359,50,88.225,3.28787,0.465,1.8228,-0.9114,0.9114,88.229,0.464,1.8,-0.93,0.87
360,50,87.7342,3.43918,0.486,1.90512,-0.9533,0.9533,87.732,0.492,1.91,-1.01,0.9
361,50,88.8236,2.53388,0.358,1.40336,-0.7024,0.7024,88.824,0.36,1.4,-0.72,0.69
362,50,88.1942,3.46146,0.49,1.9208,-0.9595,0.9595,88.19,0.493,1.93,-1.03,0.9
363,50,88.2844,2.72705,0.386,1.51312,-0.7559,0.7559,88.281,0.389,1.51,-0.78,0.73
364,50,88.1912,2.74312,0.388,1.52096,-0.7604,0.7604,88.194,0.387,1.52,-0.78,0.74
365,50,88.5812,2.56439,0.363,1.42296,-0.7108,0.7108,88.582,0.363,1.42,-0.74,0.67
366,50,87.9196,3.6186,0.512,2.00704,-1.003,1.003,87.916,0.51,1.99,-1.05,0.94
367,50,88.1534,2.57755,0.365,1.4308,-0.7145,0.7145,88.151,0.366,1.43,-0.72,0.71
368,50,87.9086,3.77184,0.533,2.08936,-1.0455,1.0455,87.91,0.535,2.1,-1.13,0.97
369,50,88.198,3.60957,0.51,1.9992,-1.0005,1.0005,88.198,0.511,1.99,-1.06,0.93
370,50,88.337,3.47504,0.491,1.92472,-0.9632,0.9632,88.345,0.486,1.89,-1.01,0.89
371,50,88.6868,2.66757,0.377,1.47784,-0.7394,0.7394,88.688,0.376,1.47,-0.75,0.72
372,50,87.624,3.1922,0.451,1.76792,-0.8848,0.8848,87.629,0.449,1.76,-0.95,0.81
373,50,87.7446,3.41055,0.482,1.88944,-0.9454,0.9454,87.745,0.484,1.89,-1.02,0.88
374,50,88.275,3.07769,0.435,1.7052,-0.8531,0.8531,88.272,0.437,1.71,-0.87,0.84
375,50,88.4448,2.46976,0.349,1.36808,-0.6846,0.6846,88.445,0.35,1.36,-0.7,0.67
376,50,88.1488,2.68171,0.379,1.48568,-0.7433,0.7433,88.148,0.382,1.52,-0.76,0.75
377,50,87.9948,3.19538,0.452,1.77184,-0.8857,0.8857,88.0,0.453,1.8,-0.99,0.81
378,50,88.846,2.56185,0.362,1.41904,-0.7101,0.7101,88.85,0.364,1.42,-0.73,0.69
379,50,87.8036,3.89046,0.55,2.156,-1.0784,1.0784,87.803,0.545,2.14,-1.13,1.0
380,50,88.2194,3.5963,0.509,1.99528,-0.9968,0.9968,88.214,0.511,2.01,-1.08,0.93
381,50,88.2498,3.04859,0.431,1.68952,-0.845,0.845,88.25,0.435,1.7,-0.87,0.83
382,50,88.3076,3.45144,0.488,1.91296,-0.9567,0.9567,88.308,0.491,1.92,-1.03,0.89
383,50,88.6532,2.44045,0.345,1.3524,-0.6765,0.6765,88.654,0.345,1.37,-0.7,0.66
384,50,88.5188,3.22937,0.457,1.79144,-0.8951,0.8951,88.518,0.455,1.79,-0.97,0.81
385,50,88.4816,2.32614,0.329,1.28968,-0.6448,0.6448,88.481,0.331,1.28,-0.65,0.63
386,50,88.1818,2.49035,0.352,1.37984,-0.6903,0.6903,88.176,0.35,1.36,-0.68,0.69
387,50,87.592,3.65306,0.517,2.02664,-1.0126,1.0126,87.592,0.518,2.03,-1.07,0.95
388,50,88.0264,3.69125,0.522,2.04624,-1.0232,1.0232,88.025,0.528,2.07,-1.11,0.96
389,50,88.1846,2.66797,0.377,1.47784,-0.7395,0.7395,88.188,0.378,1.49,-0.76,0.73
390,50,88.5478,2.53704,0.359,1.40728,-0.7032,0.7032,88.55,0.36,1.4,-0.7,0.7
391,50,88.7588,2.43429,0.344,1.34848,-0.6748,0.6748,88.761,0.344,1.34,-0.69,0.65
392,50,88.8602,2.29537,0.325,1.274,-0.6362,0.6362,88.857,0.327,1.27,-0.64,0.62
393,50,88.5682,3.35111,0.474,1.85808,-0.9289,0.9289,88.565,0.472,1.85,-0.99,0.85
394,50,87.606,2.88673,0.408,1.59936,-0.8002,0.8002,87.61,0.406,1.59,-0.8,0.79
395,50,88.2648,3.82289,0.541,2.12072,-1.0597,1.0597,88.267,0.542,2.14,-1.14,1.0
396,50,87.8422,3.61256,0.511,2.00312,-1.0014,1.0014,87.843,0.51,1.99,-1.07,0.93
397,50,88.518,3.48947,0.493,1.93256,-0.9672,0.9672,88.516,0.491,1.92,-1.03,0.89
398,50,88.3654,3.3789,0.478,1.87376,-0.9366,0.9366,88.372,0.474,1.84,-1.0,0.84
399,50,87.9952,2.81485,0.398,1.56016,-0.7802,0.7802,87.996,0.4,1.56,-0.82,0.74
400,100,88.2626,3.29328,0.329,1.28968,-0.6455,0.6455,88.265,0.33,1.31,-0.68,0.62
401,100,88.1923,3.3244,0.332,1.30144,-0.6516,0.6516,88.191,0.333,1.3,-0.69,0.62
402,100,88.1276,3.32277,0.332,1.30144,-0.6513,0.6513,88.128,0.333,1.3,-0.68,0.62
403,100,88.1523,3.33308,0.333,1.30536,-0.6533,0.6533,88.149,0.328,1.29,-0.67,0.62
404,100,88.142,3.36032,0.336,1.31712,-0.6586,0.6586,88.138,0.334,1.32,-0.68,0.63
405,100,88.0902,3.34257,0.334,1.30928,-0.6551,0.6551,88.089,0.334,1.3,-0.67,0.63
406,100,88.2557,3.318,0.332,1.30144,-0.6503,0.6503,88.264,0.331,1.29,-0.66,0.62
407,100,88.284,3.17288,0.317,1.24264,-0.6219,0.6219,88.286,0.32,1.26,-0.66,0.6
408,100,88.1271,3.32439,0.332,1.30144,-0.6516,0.6516,88.124,0.334,1.31,-0.68,0.63
409,100,88.2272,3.30495,0.33,1.2936,-0.6478,0.6478,88.228,0.331,1.3,-0.67,0.63
410,100,88.2612,3.09783,0.31,1.2152,-0.6072,0.6072,88.264,0.309,1.21,-0.63,0.57
411,100,88.2514,3.31221,0.331,1.29752,-0.6492,0.6492,88.25,0.331,1.29,-0.66,0.62
412,100,88.2223,3.36958,0.337,1.32104,-0.6604,0.6604,88.222,0.34,1.32,-0.69,0.63
413,100,88.2731,3.3542,0.335,1.3132,-0.6574,0.6574,88.273,0.335,1.31,-0.68,0.63
414,100,88.1373,3.31012,0.331,1.29752,-0.6488,0.6488,88.139,0.332,1.29,-0.67,0.62
415,100,88.2667,3.30257,0.33,1.2936,-0.6473,0.6473,88.267,0.33,1.3,-0.68,0.62
416,100,88.2789,3.29202,0.329,1.28968,-0.6452,0.6452,88.28,0.326,1.27,-0.66,0.61
417,100,88.0926,3.34147,0.334,1.30928,-0.6549,0.6549,88.092,0.332,1.31,-0.68,0.63
418,100,88.1951,3.14476,0.314,1.23088,-0.6164,0.6164,88.201,0.315,1.23,-0.64,0.59
419,100,88.1543,3.35555,0.336,1.31712,-0.6577,0.6577,88.16,0.334,1.31,-0.68,0.63
420,100,88.0944,3.29628,0.33,1.2936,-0.6461,0.6461,88.096,0.332,1.29,-0.68,0.61
421,100,88.1221,3.29307,0.329,1.28968,-0.6454,0.6454,88.128,0.329,1.28,-0.67,0.61
422,100,88.0794,3.34081,0.334,1.30928,-0.6548,0.6548,88.08,0.332,1.29,-0.67,0.62
423,100,88.3364,3.34589,0.335,1.3132,-0.6558,0.6558,88.336,0.333,1.3,-0.67,0.63
424,100,88.3231,2.89855,0.29,1.1368,-0.5681,0.5681,88.322,0.289,1.13,-0.58,0.55
425,100,88.2688,3.19341,0.319,1.25048,-0.6259,0.6259,88.267,0.319,1.25,-0.66,0.6
426,100,88.2771,3.28596,0.329,1.28968,-0.644,0.644,88.275,0.329,1.29,-0.68,0.61
427,100,88.1773,3.35712,0.336,1.31712,-0.658,0.658,88.177,0.336,1.31,-0.68,0.63
428,100,88.147,3.27347,0.327,1.28184,-0.6416,0.6416,88.147,0.329,1.28,-0.66,0.61
429,100,88.1658,3.2756,0.328,1.28576,-0.642,0.642,88.167,0.326,1.3,-0.67,0.62
430,100,88.2743,3.12901,0.313,1.22696,-0.6133,0.6133,88.27,0.312,1.23,-0.65,0.58
431,100,88.1344,3.32698,0.333,1.30536,-0.6521,0.6521,88.14,0.334,1.31,-0.68,0.63
432,100,88.117,3.32496,0.332,1.30144,-0.6517,0.6517,88.121,0.333,1.3,-0.68,0.63
433,100,88.1875,3.29375,0.329,1.28968,-0.6456,0.6456,88.188,0.33,1.29,-0.67,0.62
434,100,88.5837,2.98045,0.298,1.16816,-0.5842,0.5842,88.581,0.301,1.17,-0.62,0.56
435,100,88.2422,3.36051,0.336,1.31712,-0.6587,0.6587,88.244,0.333,1.31,-0.68,0.63
436,100,88.1787,3.35732,0.336,1.31712,-0.658,0.658,88.182,0.333,1.29,-0.67,0.62
437,100,88.1296,3.31015,0.331,1.29752,-0.6488,0.6488,88.129,0.331,1.28,-0.66,0.62
438,100,88.1446,3.34065,0.334,1.30928,-0.6548,0.6548,88.141,0.332,1.3,-0.68,0.62
439,100,88.323,3.14828,0.315,1.2348,-0.6171,0.6171,88.324,0.312,1.22,-0.63,0.58
440,100,88.258,3.2607,0.326,1.27792,-0.6391,0.6391,88.256,0.325,1.27,-0.67,0.6
441,100,88.1825,3.353,0.335,1.3132,-0.6572,0.6572,88.183,0.336,1.33,-0.69,0.64
442,100,88.2685,3.33342,0.333,1.30536,-0.6533,0.6533,88.268,0.336,1.32,-0.69,0.63
443,100,88.0829,3.33434,0.333,1.30536,-0.6535,0.6535,88.085,0.332,1.29,-0.67,0.63
444,100,88.1385,3.31742,0.332,1.30144,-0.6502,0.6502,88.142,0.331,1.29,-0.67,0.62
445,100,88.2767,3.16953,0.317,1.24264,-0.6212,0.6212,88.281,0.321,1.25,-0.65,0.6
446,100,88.2926,3.19003,0.319,1.25048,-0.6252,0.6252,88.295,0.319,1.23,-0.65,0.59
447,100,88.1407,3.34721,0.335,1.3132,-0.6561,0.6561,88.139,0.333,1.3,-0.67,0.63
448,100,88.4207,2.77606,0.278,1.08976,-0.5441,0.5441,88.425,0.282,1.1,-0.56,0.54
449,100,88.2784,3.27966,0.328,1.28576,-0.6428,0.6428,88.278,0.328,1.28,-0.68,0.61
450,100,88.3148,3.34009,0.334,1.30928,-0.6547,0.6547,88.313,0.332,1.29,-0.67,0.61
451,100,88.3725,2.91099,0.291,1.14072,-0.5706,0.5706,88.374,0.293,1.14,-0.59,0.55
452,100,88.3467,3.17261,0.317,1.24264,-0.6218,0.6218,88.345,0.314,1.24,-0.64,0.59
453,100,88.3141,3.20563,0.321,1.25832,-0.6283,0.6283,88.311,0.324,1.27,-0.66,0.61
454,100,88.19,3.28297,0.328,1.28576,-0.6435,0.6435,88.187,0.328,1.29,-0.68,0.61
455,100,88.2729,3.32082,0.332,1.30144,-0.6509,0.6509,88.271,0.331,1.31,-0.68,0.63
456,100,88.2489,3.35917,0.336,1.31712,-0.6584,0.6584,88.249,0.338,1.33,-0.7,0.63
457,100,88.171,3.32417,0.332,1.30144,-0.6515,0.6515,88.175,0.332,1.29,-0.68,0.61
458,100,88.1161,3.35812,0.336,1.31712,-0.6582,0.6582,88.117,0.335,1.31,-0.69,0.63
459,100,88.2657,3.18286,0.318,1.24656,-0.6238,0.6238,88.265,0.318,1.25,-0.65,0.6
460,100,88.3422,3.1902,0.319,1.25048,-0.6253,0.6253,88.34,0.321,1.27,-0.66,0.61
461,100,88.0712,3.31442,0.331,1.29752,-0.6496,0.6496,88.067,0.332,1.29,-0.67,0.62
462,100,88.1158,3.32309,0.332,1.30144,-0.6513,0.6513,88.117,0.333,1.31,-0.66,0.64
463,100,88.1743,3.3576,0.336,1.31712,-0.6581,0.6581,88.173,0.335,1.31,-0.69,0.63
464,100,88.1035,3.34271,0.334,1.30928,-0.6552,0.6552,88.102,0.333,1.3,-0.67,0.63
465,100,88.1075,3.27603,0.328,1.28576,-0.6421,0.6421,88.109,0.325,1.28,-0.67,0.61
466,100,88.0736,3.34325,0.334,1.30928,-0.6553,0.6553,88.071,0.333,1.31,-0.68,0.63
467,100,88.1532,3.3184,0.332,1.30144,-0.6504,0.6504,88.157,0.33,1.3,-0.68,0.62
468,100,88.2378,2.85728,0.286,1.12112,-0.56,0.56,88.233,0.287,1.13,-0.57,0.56
469,100,88.2328,3.34538,0.335,1.3132,-0.6557,0.6557,88.227,0.336,1.31,-0.68,0.62
470,100,88.1776,3.18295,0.318,1.24656,-0.6239,0.6239,88.178,0.32,1.26,-0.65,0.6
471,100,88.1651,3.34069,0.334,1.30928,-0.6548,0.6548,88.17,0.334,1.3,-0.68,0.62
472,100,88.2199,3.27662,0.328,1.28576,-0.6422,0.6422,88.227,0.326,1.28,-0.67,0.61
473,100,88.1434,3.18765,0.319,1.25048,-0.6248,0.6248,88.148,0.32,1.25,-0.65,0.6
474,100,88.2376,3.14731,0.315,1.2348,-0.6169,0.6169,88.235,0.314,1.23,-0.65,0.58
475,100,88.1351,3.35135,0.335,1.3132,-0.6569,0.6569,88.134,0.335,1.32,-0.68,0.64
476,100,88.2153,3.16433,0.316,1.23872,-0.6202,0.6202,88.216,0.316,1.25,-0.65,0.6
477,100,88.2687,3.3388,0.334,1.30928,-0.6544,0.6544,88.266,0.337,1.32,-0.68,0.63
478,100,88.253,3.28943,0.329,1.28968,-0.6447,0.6447,88.258,0.33,1.29,-0.67,0.62
479,100,88.4139,2.8647,0.286,1.12112,-0.5615,0.5615,88.413,0.288,1.13,-0.58,0.55
480,100,88.1646,3.30621,0.331,1.29752,-0.648,0.648,88.159,0.329,1.28,-0.67,0.61
481,100,88.2674,3.17046,0.317,1.24264,-0.6214,0.6214,88.267,0.317,1.24,-0.64,0.59
482,100,88.2334,3.27223,0.327,1.28184,-0.6414,0.6414,88.232,0.331,1.3,-0.67,0.63
483,100,88.1836,3.33705,0.334,1.30928,-0.6541,0.6541,88.187,0.332,1.32,-0.68,0.63
484,100,88.2345,2.84735,0.285,1.1172,-0.5581,0.5581,88.231,0.286,1.11,-0.58,0.54
485,100,88.2997,3.14527,0.315,1.2348,-0.6165,0.6165,88.296,0.315,1.23,-0.65,0.58
486,100,88.3226,3.28984,0.329,1.28968,-0.6448,0.6448,88.32,0.327,1.28,-0.66,0.62
487,100,88.0663,3.35103,0.335,1.3132,-0.6568,0.6568,88.065,0.337,1.32,-0.68,0.63
488,100,88.133,3.35601,0.336,1.31712,-0.6578,0.6578,88.136,0.336,1.32,-0.68,0.64
489,100,88.2058,3.28007,0.328,1.28576,-0.6429,0.6429,88.206,0.331,1.29,-0.68,0.61
490,100,88.1467,3.34809,0.335,1.3132,-0.6562,0.6562,88.148,0.336,1.32,-0.69,0.64
491,100,88.1736,3.35578,0.336,1.31712,-0.6577,0.6577,88.172,0.336,1.32,-0.68,0.64
492,100,88.226,3.30019,0.33,1.2936,-0.6468,0.6468,88.226,0.332,1.3,-0.68,0.62
493,100,88.289,3.34446,0.334,1.30928,-0.6555,0.6555,88.286,0.335,1.3,-0.68,0.62
494,100,88.1869,3.24426,0.324,1.27008,-0.6359,0.6359,88.188,0.325,1.28,-0.66,0.61
495,100,88.2515,3.18468,0.318,1.24656,-0.6242,0.6242,88.248,0.32,1.25,-0.65,0.6
496,100,88.116,3.32506,0.333,1.30536,-0.6517,0.6517,88.113,0.336,1.32,-0.68,0.64
497,100,88.2403,3.33285,0.333,1.30536,-0.6532,0.6532,88.235,0.334,1.3,-0.67,0.63
498,100,88.1902,3.19559,0.32,1.2544,-0.6263,0.6263,88.188,0.318,1.24,-0.65,0.59
499,100,88.1995,3.33092,0.333,1.30536,-0.6529,0.6529,88.201,0.331,1.3,-0.68,0.62
500,110,88.1973,3.25215,0.31,1.2152,-0.6078,0.6078,88.197,0.305,1.19,-0.62,0.57
501,110,88.1973,3.25215,0.31,1.2152,-0.6078,0.6078,88.198,0.313,1.22,-0.63,0.59
502,110,88.1973,3.25215,0.31,1.2152,-0.6078,0.6078,88.194,0.31,1.21,-0.63,0.59
503,110,88.1973,3.25215,0.31,1.2152,-0.6078,0.6078,88.201,0.309,1.2,-0.62,0.58
504,110,88.1973,3.25215,0.31,1.2152,-0.6078,0.6078,88.191,0.313,1.22,-0.64,0.58
505,110,88.1973,3.25215,0.31,1.2152,-0.6078,0.6078,88.197,0.311,1.22,-0.64,0.59
506,110,88.1973,3.25215,0.31,1.2152,-0.6078,0.6078,88.194,0.311,1.22,-0.63,0.59
507,110,88.1973,3.25215,0.31,1.2152,-0.6078,0.6078,88.2,0.312,1.21,-0.63,0.58
508,110,88.1973,3.25215,0.31,1.2152,-0.6078,0.6078,88.2,0.31,1.21,-0.62,0.59
509,110,88.1973,3.25215,0.31,1.2152,-0.6078,0.6078,88.202,0.308,1.2,-0.63,0.58
510,110,88.1973,3.25215,0.31,1.2152,-0.6078,0.6078,88.196,0.311,1.21,-0.63,0.58
511,110,88.1973,3.25215,0.31,1.2152,-0.6078,0.6078,88.197,0.31,1.2,-0.63,0.58
512,110,88.1973,3.25215,0.31,1.2152,-0.6078,0.6078,88.199,0.311,1.24,-0.64,0.59
513,110,88.1973,3.25215,0.31,1.2152,-0.6078,0.6078,88.2,0.311,1.23,-0.64,0.59
514,110,88.1973,3.25215,0.31,1.2152,-0.6078,0.6078,88.194,0.309,1.22,-0.63,0.58
515,110,88.1973,3.25215,0.31,1.2152,-0.6078,0.6078,88.199,0.308,1.21,-0.63,0.58
516,110,88.1973,3.25215,0.31,1.2152,-0.6078,0.6078,88.201,0.311,1.23,-0.64,0.59
517,110,88.1973,3.25215,0.31,1.2152,-0.6078,0.6078,88.199,0.313,1.23,-0.64,0.59
518,110,88.1973,3.25215,0.31,1.2152,-0.6078,0.6078,88.196,0.31,1.21,-0.63,0.58
519,110,88.1973,3.25215,0.31,1.2152,-0.6078,0.6078,88.196,0.31,1.22,-0.63,0.59
520,110,88.1973,3.25215,0.31,1.2152,-0.6078,0.6078,88.2,0.31,1.24,-0.64,0.6
521,110,88.1973,3.25215,0.31,1.2152,-0.6078,0.6078,88.201,0.311,1.22,-0.63,0.58
522,110,88.1973,3.25215,0.31,1.2152,-0.6078,0.6078,88.2,0.307,1.21,-0.64,0.57
523,110,88.1973,3.25215,0.31,1.2152,-0.6078,0.6078,88.203,0.313,1.24,-0.64,0.6
524,110,88.1973,3.25215,0.31,1.2152,-0.6078,0.6078,88.191,0.307,1.2,-0.62,0.58
525,110,88.1973,3.25215,0.31,1.2152,-0.6078,0.6078,88.195,0.31,1.21,-0.63,0.59
526,110,88.1973,3.25215,0.31,1.2152,-0.6078,0.6078,88.195,0.312,1.21,-0.63,0.58
527,110,88.1973,3.25215,0.31,1.2152,-0.6078,0.6078,88.2,0.309,1.21,-0.63,0.58
528,110,88.1973,3.25215,0.31,1.2152,-0.6078,0.6078,88.195,0.31,1.22,-0.64,0.59
529,110,88.1973,3.25215,0.31,1.2152,-0.6078,0.6078,88.199,0.311,1.22,-0.63,0.58
530,110,88.1973,3.25215,0.31,1.2152,-0.6078,0.6078,88.193,0.31,1.23,-0.64,0.58
531,110,88.1973,3.25215,0.31,1.2152,-0.6078,0.6078,88.198,0.31,1.22,-0.64,0.59
532,110,88.1973,3.25215,0.31,1.2152,-0.6078,0.6078,88.195,0.311,1.21,-0.63,0.59
533,110,88.1973,3.25215,0.31,1.2152,-0.6078,0.6078,88.2,0.311,1.22,-0.63,0.59
534,110,88.1973,3.25215,0.31,1.2152,-0.6078,0.6078,88.198,0.311,1.2,-0.62,0.58
535,110,88.1973,3.25215,0.31,1.2152,-0.6078,0.6078,88.202,0.31,1.21,-0.63,0.58
536,110,88.1973,3.25215,0.31,1.2152,-0.6078,0.6078,88.199,0.31,1.21,-0.63,0.58
537,110,88.1973,3.25215,0.31,1.2152,-0.6078,0.6078,88.2,0.308,1.2,-0.62,0.58
538,110,88.1973,3.25215,0.31,1.2152,-0.6078,0.6078,88.202,0.313,1.22,-0.63,0.58
539,110,88.1973,3.25215,0.31,1.2152,-0.6078,0.6078,88.195,0.309,1.2,-0.63,0.58
540,110,88.1973,3.25215,0.31,1.2152,-0.6078,0.6078,88.2,0.308,1.22,-0.63,0.59
541,110,88.1973,3.25215,0.31,1.2152,-0.6078,0.6078,88.2,0.311,1.21,-0.63,0.58
542,110,88.1973,3.25215,0.31,1.2152,-0.6078,0.6078,88.196,0.311,1.22,-0.63,0.59
543,110,88.1973,3.25215,0.31,1.2152,-0.6078,0.6078,88.194,0.311,1.21,-0.64,0.58
544,110,88.1973,3.25215,0.31,1.2152,-0.6078,0.6078,88.199,0.311,1.22,-0.64,0.58
545,110,88.1973,3.25215,0.31,1.2152,-0.6078,0.6078,88.201,0.307,1.2,-0.62,0.58
546,110,88.1973,3.25215,0.31,1.2152,-0.6078,0.6078,88.196,0.311,1.23,-0.64,0.59
547,110,88.1973,3.25215,0.31,1.2152,-0.6078,0.6078,88.198,0.31,1.21,-0.62,0.59
548,110,88.1973,3.25215,0.31,1.2152,-0.6078,0.6078,88.194,0.312,1.23,-0.64,0.58
549,110,88.1973,3.25215,0.31,1.2152,-0.6078,0.6078,88.198,0.309,1.22,-0.64,0.58
550,110,88.1973,3.25215,0.31,1.2152,-0.6078,0.6078,88.199,0.311,1.23,-0.63,0.6
551,110,88.1973,3.25215,0.31,1.2152,-0.6078,0.6078,88.198,0.307,1.2,-0.62,0.58
552,110,88.1973,3.25215,0.31,1.2152,-0.6078,0.6078,88.197,0.31,1.21,-0.63,0.58
553,110,88.1973,3.25215,0.31,1.2152,-0.6078,0.6078,88.193,0.309,1.21,-0.63,0.58
554,110,88.1973,3.25215,0.31,1.2152,-0.6078,0.6078,88.196,0.309,1.2,-0.63,0.57
555,110,88.1973,3.25215,0.31,1.2152,-0.6078,0.6078,88.196,0.311,1.22,-0.63,0.59
556,110,88.1973,3.25215,0.31,1.2152,-0.6078,0.6078,88.199,0.308,1.2,-0.62,0.58
557,110,88.1973,3.25215,0.31,1.2152,-0.6078,0.6078,88.196,0.313,1.22,-0.64,0.58
558,110,88.1973,3.25215,0.31,1.2152,-0.6078,0.6078,88.199,0.311,1.22,-0.63,0.59
559,110,88.1973,3.25215,0.31,1.2152,-0.6078,0.6078,88.191,0.313,1.21,-0.63,0.58
560,110,88.1973,3.25215,0.31,1.2152,-0.6078,0.6078,88.204,0.309,1.21,-0.63,0.59
561,110,88.1973,3.25215,0.31,1.2152,-0.6078,0.6078,88.202,0.312,1.23,-0.65,0.59
562,110,88.1973,3.25215,0.31,1.2152,-0.6078,0.6078,88.195,0.31,1.21,-0.64,0.58
563,110,88.1973,3.25215,0.31,1.2152,-0.6078,0.6078,88.197,0.312,1.23,-0.65,0.58
564,110,88.1973,3.25215,0.31,1.2152,-0.6078,0.6078,88.196,0.31,1.2,-0.63,0.58
565,110,88.1973,3.25215,0.31,1.2152,-0.6078,0.6078,88.199,0.308,1.2,-0.62,0.58
566,110,88.1973,3.25215,0.31,1.2152,-0.6078,0.6078,88.194,0.311,1.22,-0.63,0.59
567,110,88.1973,3.25215,0.31,1.2152,-0.6078,0.6078,88.196,0.308,1.21,-0.62,0.58
568,110,88.1973,3.25215,0.31,1.2152,-0.6078,0.6078,88.195,0.309,1.2,-0.63,0.58
569,110,88.1973,3.25215,0.31,1.2152,-0.6078,0.6078,88.197,0.31,1.21,-0.63,0.58
570,110,88.1973,3.25215,0.31,1.2152,-0.6078,0.6078,88.194,0.309,1.21,-0.62,0.58
571,110,88.1973,3.25215,0.31,1.2152,-0.6078,0.6078,88.196,0.31,1.2,-0.62,0.59
572,110,88.1973,3.25215,0.31,1.2152,-0.6078,0.6078,88.199,0.309,1.22,-0.64,0.58
573,110,88.1973,3.25215,0.31,1.2152,-0.6078,0.6078,88.198,0.312,1.22,-0.63,0.59
574,110,88.1973,3.25215,0.31,1.2152,-0.6078,0.6078,88.202,0.308,1.21,-0.62,0.59
575,110,88.1973,3.25215,0.31,1.2152,-0.6078,0.6078,88.197,0.313,1.23,-0.64,0.59
576,110,88.1973,3.25215,0.31,1.2152,-0.6078,0.6078,88.2,0.308,1.21,-0.63,0.58
577,110,88.1973,3.25215,0.31,1.2152,-0.6078,0.6078,88.195,0.312,1.22,-0.64,0.59
578,110,88.1973,3.25215,0.31,1.2152,-0.6078,0.6078,88.198,0.308,1.19,-0.62,0.58
579,110,88.1973,3.25215,0.31,1.2152,-0.6078,0.6078,88.197,0.311,1.22,-0.63,0.59
580,110,88.1973,3.25215,0.31,1.2152,-0.6078,0.6078,88.191,0.31,1.22,-0.63,0.59
581,110,88.1973,3.25215,0.31,1.2152,-0.6078,0.6078,88.2,0.311,1.22,-0.63,0.59
582,110,88.1973,3.25215,0.31,1.2152,-0.6078,0.6078,88.196,0.311,1.22,-0.64,0.58
583,110,88.1973,3.25215,0.31,1.2152,-0.6078,0.6078,88.198,0.31,1.22,-0.62,0.59
584,110,88.1973,3.25215,0.31,1.2152,-0.6078,0.6078,88.194,0.313,1.23,-0.64,0.59
585,110,88.1973,3.25215,0.31,1.2152,-0.6078,0.6078,88.198,0.311,1.23,-0.65,0.59
586,110,88.1973,3.25215,0.31,1.2152,-0.6078,0.6078,88.199,0.308,1.2,-0.62,0.58
587,110,88.1973,3.25215,0.31,1.2152,-0.6078,0.6078,88.201,0.31,1.21,-0.62,0.59
588,110,88.1973,3.25215,0.31,1.2152,-0.6078,0.6078,88.198,0.312,1.22,-0.63,0.59
589,110,88.1973,3.25215,0.31,1.2152,-0.6078,0.6078,88.199,0.307,1.2,-0.62,0.58
590,110,88.1973,3.25215,0.31,1.2152,-0.6078,0.6078,88.199,0.309,1.2,-0.63,0.58
591,110,88.1973,3.25215,0.31,1.2152,-0.6078,0.6078,88.198,0.313,1.22,-0.63,0.59
592,110,88.1973,3.25215,0.31,1.2152,-0.6078,0.6078,88.198,0.31,1.21,-0.62,0.59
593,110,88.1973,3.25215,0.31,1.2152,-0.6078,0.6078,88.195,0.312,1.22,-0.63,0.58
594,110,88.1973,3.25215,0.31,1.2152,-0.6078,0.6078,88.199,0.307,1.2,-0.63,0.57
595,110,88.1973,3.25215,0.31,1.2152,-0.6078,0.6078,88.197,0.309,1.21,-0.63,0.58
596,110,88.1973,3.25215,0.31,1.2152,-0.6078,0.6078,88.196,0.309,1.21,-0.63,0.58
597,110,88.1973,3.25215,0.31,1.2152,-0.6078,0.6078,88.197,0.313,1.24,-0.65,0.6
598,110,88.1973,3.25215,0.31,1.2152,-0.6078,0.6078,88.196,0.31,1.22,-0.63,0.59
599,110,88.1973,3.25215,0.31,1.2152,-0.6078,0.6078,88.195,0.311,1.23,-0.64,0.59